subject_id,task,trial,choice,reward,task_no_answer,task_answer,counterbalance,pre_confidence,post_confidence,RT,carry-over,distractor,accuracy,abstract_task,stim1,stim2,displayed_answer,sex,age
0,5,0,n,1,13*13,13*13=168,0.0,9,3,1687,na,Incorrect_Unrelated,1,XX*XX,13,13,168,female,20
0,19,1,n,1,67-3,67-3=54,0.0,1,1,2320,without_carry-over,First_Digit_Incorrect,1,XX-X,67,3,54,female,20
0,31,2,n,1,398-66,398-66=338,0.0,3,8,2237,without_carry-over,Last_Digit_Incorrect,1,XXX-XX,398,66,338,female,20
0,5,3,n,1,12*12,12*12=143,0.0,2,2,1317,na,Incorrect_Unrelated,1,XX*XX,12,12,143,female,20
0,7,4,c,-1,24*5,24*5=96,0.0,9,_,0,na,Incorrect_Related,0,XX*X,24,5,96,female,20
0,26,5,n,1,677-160,677-160=527,0.0,9,9,2396,without_carry-over,Middle_Digit_Incorrect,1,XXX-XXX,677,160,527,female,20
0,14,6,n,1,39-18,39-18=29,0.0,2,2,2666,without_carry-over,Second_Digit_Incorrect,1,XX-XX,39,18,29,female,20
0,1,8,n,1,8*31,8*31=240,0.0,0,0,1898,na,Incorrect_Related,1,X*XX,8,31,240,female,20
0,23,9,n,1,652-559,652-559=97,0.0,9,2,2170,with_carry-over,Second_Digit_Incorrect,1,XXX-XXX,652,559,97,female,20
0,26,10,c,-1,784-431,784-431=343,0.0,9,3,2656,without_carry-over,Middle_Digit_Incorrect,0,XXX-XXX,784,431,343,female,20
0,20,11,n,1,45-4,45-4=42,0.0,1,1,2052,without_carry-over,Second_Digit_Incorrect,1,XX-X,45,4,42,female,20
0,25,12,c,-1,677-160,677-160=513,0.0,2,_,0,without_carry-over,Last_Digit_Incorrect,0,XXX-XXX,677,160,513,female,20
0,8,14,n,1,24*5,24*5=119,0.0,9,3,1726,na,Incorrect_Unrelated,1,XX*X,24,5,119,female,20
0,16,15,n,1,45-9,45-9=26,0.0,1,1,2699,with_carry-over,First_Digit_Incorrect,1,XX-X,45,9,26,female,20
0,25,16,n,1,495-244,495-244=259,0.0,2,3,1786,without_carry-over,Last_Digit_Incorrect,1,XXX-XXX,495,244,259,female,20
0,29,17,n,1,132-55,132-55=73,0.0,3,8,2769,with_carry-over,Second_Digit_Incorrect,1,XXX-XX,132,55,73,female,20
0,20,20,c,-1,67-3,67-3=66,0.0,1,_,0,without_carry-over,Second_Digit_Incorrect,0,XX-X,67,3,66,female,20
0,13,21,c,-1,98-64,98-64=24,0.0,2,3,1613,without_carry-over,First_Digit_Incorrect,0,XX-XX,98,64,24,female,20
0,8,23,n,1,61*8,61*8=489,0.0,0,0,1793,na,Incorrect_Unrelated,1,XX*X,61,8,489,female,20
0,10,26,c,-1,81-37,81-37=54,0.0,8,9,1625,with_carry-over,First_Digit_Incorrect,0,XX-XX,81,37,54,female,20
0,4,28,n,1,14*14,14*14=182,0.0,8,3,1766,na,Incorrect_Related,1,XX*XX,14,14,182,female,20
0,31,29,n,1,465-22,465-22=447,0.0,8,8,1850,without_carry-over,Last_Digit_Incorrect,1,XXX-XX,465,22,447,female,20
0,32,30,n,1,663-22,663-22=631,0.0,8,8,1178,without_carry-over,Middle_Digit_Incorrect,1,XXX-XX,663,22,631,female,20
0,13,31,n,1,58-16,58-16=32,0.0,3,8,856,without_carry-over,First_Digit_Incorrect,1,XX-XX,58,16,32,female,20
0,31,32,n,1,663-22,663-22=649,0.0,8,8,638,without_carry-over,Last_Digit_Incorrect,1,XXX-XX,663,22,649,female,20
0,25,33,n,1,888-574,888-574=316,0.0,9,8,1270,without_carry-over,Last_Digit_Incorrect,1,XXX-XXX,888,574,316,female,20
0,10,34,n,1,35-17,35-17=28,0.0,8,8,575,with_carry-over,First_Digit_Incorrect,1,XX-XX,35,17,28,female,20
0,28,35,n,1,132-55,132-55=87,0.0,9,8,1172,with_carry-over,First_Digit_Incorrect,1,XXX-XX,132,55,87,female,20
0,19,36,n,1,59-1,59-1=48,0.0,1,1,1794,without_carry-over,First_Digit_Incorrect,1,XX-X,59,1,48,female,20
0,28,37,n,1,148-56,148-56=82,0.0,8,3,1788,with_carry-over,First_Digit_Incorrect,1,XXX-XX,148,56,82,female,20
0,4,40,n,1,15*31,15*31=480,0.0,0,0,1916,na,Incorrect_Related,1,XX*XX,15,31,480,female,20
0,14,41,n,1,82-71,82-71=19,0.0,3,8,2033,without_carry-over,Second_Digit_Incorrect,1,XX-XX,82,71,19,female,20
0,11,42,n,1,52-16,52-16=34,0.0,8,8,1294,with_carry-over,Second_Digit_Incorrect,1,XX-XX,52,16,34,female,20
0,32,43,n,1,599-63,599-63=553,0.0,8,9,699,without_carry-over,Middle_Digit_Incorrect,1,XXX-XX,599,63,553,female,20
0,4,44,n,1,25*18,25*18=475,0.0,0,0,1720,na,Incorrect_Related,1,XX*XX,25,18,475,female,20
0,5,45,n,1,15*31,15*31=466,0.0,0,0,930,na,Incorrect_Unrelated,1,XX*XX,15,31,466,female,20
0,16,46,n,1,71-9,71-9=52,0.0,2,1,2491,with_carry-over,First_Digit_Incorrect,1,XX-X,71,9,52,female,20
0,13,48,n,1,39-18,39-18=11,0.0,8,9,1226,without_carry-over,First_Digit_Incorrect,1,XX-XX,39,18,11,female,20
0,22,51,n,1,452-369,452-369=93,0.0,9,8,2706,with_carry-over,First_Digit_Incorrect,1,XXX-XXX,452,369,93,female,20
0,17,53,n,1,88-9,88-9=71,0.0,2,1,2785,with_carry-over,Second_Digit_Incorrect,1,XX-X,88,9,71,female,20
0,2,55,c,-1,8*31,8*31=247,0.0,0,0,2123,na,Incorrect_Unrelated,0,X*XX,8,31,247,female,20
0,14,56,c,-1,46-12,46-12=36,0.0,2,2,1622,without_carry-over,Second_Digit_Incorrect,0,XX-XX,46,12,36,female,20
0,31,57,c,-1,279-45,279-45=236,0.0,3,3,2663,without_carry-over,Last_Digit_Incorrect,0,XXX-XX,279,45,236,female,20
0,16,58,c,-1,94-8,94-8=76,0.0,2,2,2263,with_carry-over,First_Digit_Incorrect,0,XX-X,94,8,76,female,20
0,17,60,n,1,42-5,42-5=33,0.0,1,1,1614,with_carry-over,Second_Digit_Incorrect,1,XX-X,42,5,33,female,20
0,23,61,n,1,254-188,254-188=64,0.0,9,8,969,with_carry-over,Second_Digit_Incorrect,1,XXX-XXX,254,188,64,female,20
0,14,62,n,1,64-12,64-12=58,0.0,2,9,1762,without_carry-over,Second_Digit_Incorrect,1,XX-XX,64,12,58,female,20
0,8,63,n,1,16*4,16*4=65,0.0,0,2,1685,na,Incorrect_Unrelated,1,XX*X,16,4,65,female,20
0,2,64,n,1,7*21,7*21=146,0.0,9,9,1736,na,Incorrect_Unrelated,1,X*XX,7,21,146,female,20
0,19,65,n,1,38-2,38-2=26,0.0,1,1,1262,without_carry-over,First_Digit_Incorrect,1,XX-X,38,2,26,female,20
0,16,67,c,-1,51-9,51-9=32,0.0,1,_,0,with_carry-over,First_Digit_Incorrect,0,XX-X,51,9,32,female,20
0,2,68,n,1,9*24,9*24=215,0.0,9,9,1314,na,Incorrect_Unrelated,1,X*XX,9,24,215,female,20
0,11,69,n,1,91-57,91-57=36,0.0,9,9,1149,with_carry-over,Second_Digit_Incorrect,1,XX-XX,91,57,36,female,20
0,23,71,n,1,537-444,537-444=97,0.0,9,9,616,with_carry-over,Second_Digit_Incorrect,1,XXX-XXX,537,444,97,female,20
0,26,72,n,1,989-577,989-577=422,0.0,9,9,936,without_carry-over,Middle_Digit_Incorrect,1,XXX-XXX,989,577,422,female,20
0,29,73,n,1,123-66,123-66=53,0.0,9,9,839,with_carry-over,Second_Digit_Incorrect,1,XXX-XX,123,66,53,female,20
0,26,74,n,1,576-225,576-225=341,0.0,8,8,1406,without_carry-over,Middle_Digit_Incorrect,1,XXX-XXX,576,225,341,female,20
0,11,75,n,1,75-26,75-26=41,0.0,8,8,1646,with_carry-over,Second_Digit_Incorrect,1,XX-XX,75,26,41,female,20
0,22,76,n,1,882-795,882-795=77,0.0,8,8,513,with_carry-over,First_Digit_Incorrect,1,XXX-XXX,882,795,77,female,20
0,22,78,n,1,537-444,537-444=83,0.0,8,9,839,with_carry-over,First_Digit_Incorrect,1,XXX-XXX,537,444,83,female,20
0,11,80,c,-1,32-15,32-15=13,0.0,2,3,1170,with_carry-over,Second_Digit_Incorrect,0,XX-XX,32,15,13,female,20
0,17,83,n,1,45-9,45-9=34,0.0,8,8,705,with_carry-over,Second_Digit_Incorrect,1,XX-X,45,9,34,female,20
0,32,84,n,1,963-52,963-52=921,0.0,8,8,488,without_carry-over,Middle_Digit_Incorrect,1,XXX-XX,963,52,921,female,20
0,2,85,n,1,5*29,5*29=146,0.0,0,9,1009,na,Incorrect_Unrelated,1,X*XX,5,29,146,female,20
0,25,88,n,1,989-577,989-577=418,0.0,8,9,848,without_carry-over,Last_Digit_Incorrect,1,XXX-XXX,989,577,418,female,20
0,25,90,n,1,784-431,784-431=357,0.0,8,8,359,without_carry-over,Last_Digit_Incorrect,1,XXX-XXX,784,431,357,female,20
0,2,91,n,1,6*16,6*16=97,0.0,0,9,1884,na,Incorrect_Unrelated,1,X*XX,6,16,97,female,20
0,13,93,c,-1,72-51,72-51=11,0.0,8,8,1973,without_carry-over,First_Digit_Incorrect,0,XX-XX,72,51,11,female,20
0,4,94,n,1,50*21,50*21=1000,0.0,0,0,543,na,Incorrect_Related,1,XX*XX,50,21,1000,female,20
0,26,96,n,1,339-111,339-111=218,0.0,9,9,369,without_carry-over,Middle_Digit_Incorrect,1,XXX-XXX,339,111,218,female,20
0,26,99,n,1,888-574,888-574=304,0.0,9,0,2239,without_carry-over,Middle_Digit_Incorrect,1,XXX-XXX,888,574,304,female,20
0,20,101,n,1,58-6,58-6=51,0.0,2,1,1413,without_carry-over,Second_Digit_Incorrect,1,XX-X,58,6,51,female,20
0,20,102,n,1,99-8,99-8=92,0.0,1,1,1601,without_carry-over,Second_Digit_Incorrect,1,XX-X,99,8,92,female,20
0,28,105,c,-1,105-22,105-22=93,0.0,9,8,1687,with_carry-over,First_Digit_Incorrect,0,XXX-XX,105,22,93,female,20
0,4,107,n,1,25*11,25*11=250,0.0,0,0,804,na,Incorrect_Related,1,XX*XX,25,11,250,female,20
0,25,108,n,1,576-225,576-225=359,0.0,9,8,530,without_carry-over,Last_Digit_Incorrect,1,XXX-XXX,576,225,359,female,20
0,10,109,n,1,46-27,46-27=29,0.0,9,8,451,with_carry-over,First_Digit_Incorrect,1,XX-XX,46,27,29,female,20
0,29,110,c,-1,119-52,119-52=63,0.0,9,8,750,with_carry-over,Second_Digit_Incorrect,0,XXX-XX,119,52,63,female,20
0,5,111,n,1,25*18,25*18=451,0.0,0,8,1265,na,Incorrect_Unrelated,1,XX*XX,25,18,451,female,20
0,22,112,n,1,652-559,652-559=83,0.0,9,8,464,with_carry-over,First_Digit_Incorrect,1,XXX-XXX,652,559,83,female,20
0,22,114,n,1,263-177,263-177=96,0.0,9,8,1376,with_carry-over,First_Digit_Incorrect,1,XXX-XXX,263,177,96,female,20
0,17,115,n,1,51-9,51-9=48,0.0,2,1,1802,with_carry-over,Second_Digit_Incorrect,1,XX-X,51,9,48,female,20
0,20,116,n,1,85-2,85-2=82,0.0,1,1,2231,without_carry-over,Second_Digit_Incorrect,1,XX-X,85,2,82,female,20
0,11,117,n,1,46-27,46-27=11,0.0,0,8,646,with_carry-over,Second_Digit_Incorrect,1,XX-XX,46,27,11,female,20
0,22,119,n,1,326-253,326-253=83,0.0,9,8,675,with_carry-over,First_Digit_Incorrect,1,XXX-XXX,326,253,83,female,20
0,1,120,n,1,2*98,2*98=198,0.0,0,8,705,na,Incorrect_Related,1,X*XX,2,98,198,female,20
0,17,121,n,1,94-8,94-8=84,0.0,2,8,1711,with_carry-over,Second_Digit_Incorrect,1,XX-X,94,8,84,female,20
0,23,126,n,1,882-795,882-795=83,0.0,9,9,665,with_carry-over,Second_Digit_Incorrect,1,XXX-XXX,882,795,83,female,20
0,13,127,c,-1,64-12,64-12=42,0.0,2,3,1350,without_carry-over,First_Digit_Incorrect,0,XX-XX,64,12,42,female,20
0,7,128,n,1,16*4,16*4=80,0.0,9,2,1412,na,Incorrect_Related,1,XX*X,16,4,80,female,20
0,7,129,n,1,87*2,87*2=261,0.0,9,3,2117,na,Incorrect_Related,1,XX*X,87,2,261,female,20
0,13,130,n,1,82-71,82-71=21,0.0,9,8,2202,without_carry-over,First_Digit_Incorrect,1,XX-XX,82,71,21,female,20
0,26,131,n,1,495-244,495-244=261,0.0,9,9,516,without_carry-over,Middle_Digit_Incorrect,1,XXX-XXX,495,244,261,female,20
0,7,133,n,1,10*9,10*9=80,0.0,1,1,1740,na,Incorrect_Related,1,XX*X,10,9,80,female,20
0,13,134,n,1,46-12,46-12=24,0.0,1,9,712,without_carry-over,First_Digit_Incorrect,1,XX-XX,46,12,24,female,20
0,2,136,n,1,3*46,3*46=139,0.0,0,8,1331,na,Incorrect_Unrelated,1,X*XX,3,46,139,female,20
0,23,138,n,1,326-253,326-253=77,0.0,9,8,1182,with_carry-over,Second_Digit_Incorrect,1,XXX-XXX,326,253,77,female,20
0,20,140,n,1,38-2,38-2=34,0.0,1,1,1643,without_carry-over,Second_Digit_Incorrect,1,XX-X,38,2,34,female,20
0,22,142,c,-1,254-188,254-188=76,0.0,9,8,1055,with_carry-over,First_Digit_Incorrect,0,XXX-XXX,254,188,76,female,20
0,8,143,n,1,10*9,10*9=89,0.0,1,1,1753,na,Incorrect_Unrelated,1,XX*X,10,9,89,female,20
0,7,147,n,1,75*6,75*6=525,0.0,0,8,545,na,Incorrect_Related,1,XX*X,75,6,525,female,20
0,28,148,n,1,169-85,169-85=94,0.0,9,8,383,with_carry-over,First_Digit_Incorrect,1,XXX-XX,169,85,94,female,20
0,14,149,n,1,72-51,72-51=29,0.0,9,8,276,without_carry-over,Second_Digit_Incorrect,1,XX-XX,72,51,29,female,20
0,1,152,n,1,7*21,7*21=140,0.0,0,8,629,na,Incorrect_Related,1,X*XX,7,21,140,female,20
0,19,153,n,1,85-2,85-2=73,0.0,1,1,1320,without_carry-over,First_Digit_Incorrect,1,XX-X,85,2,73,female,20
0,28,155,c,-1,172-99,172-99=83,0.0,9,8,920,with_carry-over,First_Digit_Incorrect,0,XXX-XX,172,99,83,female,20
0,4,158,n,1,11*11,11*11=132,0.0,2,2,1293,na,Incorrect_Related,1,XX*XX,11,11,132,female,20
0,29,160,n,1,169-85,169-85=86,0.0,9,8,375,with_carry-over,Second_Digit_Incorrect,1,XXX-XX,169,85,86,female,20
0,29,161,n,1,105-22,105-22=87,0.0,9,8,745,with_carry-over,Second_Digit_Incorrect,1,XXX-XX,105,22,87,female,20
0,16,162,n,1,42-5,42-5=27,0.0,2,1,1330,with_carry-over,First_Digit_Incorrect,1,XX-X,42,5,27,female,20
0,25,165,n,1,479-105,479-105=376,0.0,9,8,462,without_carry-over,Last_Digit_Incorrect,1,XXX-XXX,479,105,376,female,20
0,31,167,n,1,599-63,599-63=567,0.0,9,8,302,without_carry-over,Last_Digit_Incorrect,1,XXX-XX,599,63,567,female,20
0,23,168,n,1,263-177,263-177=84,0.0,9,8,338,with_carry-over,Second_Digit_Incorrect,1,XXX-XXX,263,177,84,female,20
0,31,170,n,1,888-62,888-62=824,0.0,9,8,220,without_carry-over,Last_Digit_Incorrect,1,XXX-XX,888,62,824,female,20
0,11,173,c,-1,66-29,66-29=33,0.0,9,3,783,with_carry-over,Second_Digit_Incorrect,0,XX-XX,66,29,33,female,20
0,4,174,n,1,12*12,12*12=132,0.0,2,2,1745,na,Incorrect_Related,1,XX*XX,12,12,132,female,20
0,32,175,n,1,774-53,774-53=711,0.0,9,8,736,without_carry-over,Middle_Digit_Incorrect,1,XXX-XX,774,53,711,female,20
0,11,176,n,1,81-37,81-37=46,0.0,9,9,434,with_carry-over,Second_Digit_Incorrect,1,XX-XX,81,37,46,female,20
0,10,178,c,-1,91-57,91-57=24,0.0,9,8,324,with_carry-over,First_Digit_Incorrect,0,XX-XX,91,57,24,female,20
0,29,179,c,-1,156-63,156-63=97,0.0,9,3,652,with_carry-over,Second_Digit_Incorrect,0,XXX-XX,156,63,97,female,20
0,32,182,n,1,465-22,465-22=453,0.0,9,3,782,without_carry-over,Middle_Digit_Incorrect,1,XXX-XX,465,22,453,female,20
0,8,183,n,1,87*2,87*2=175,0.0,0,9,729,na,Incorrect_Unrelated,1,XX*X,87,2,175,female,20
0,1,188,n,1,4*56,4*56=220,0.0,0,8,1518,na,Incorrect_Related,1,X*XX,4,56,220,female,20
0,16,190,n,1,66-7,66-7=49,0.0,2,1,1686,with_carry-over,First_Digit_Incorrect,1,XX-X,66,7,49,female,20
0,22,191,n,1,788-699,788-699=79,0.0,9,8,826,with_carry-over,First_Digit_Incorrect,1,XXX-XXX,788,699,79,female,20
0,5,194,n,1,11*11,11*11=122,0.0,2,1,1161,na,Incorrect_Unrelated,1,XX*XX,11,11,122,female,20
0,2,195,n,1,4*56,4*56=223,0.0,9,8,1981,na,Incorrect_Unrelated,1,X*XX,4,56,223,female,20
0,2,196,n,1,2*98,2*98=197,0.0,9,8,401,na,Incorrect_Unrelated,1,X*XX,2,98,197,female,20
0,5,197,n,1,25*11,25*11=274,0.0,9,8,280,na,Incorrect_Unrelated,1,XX*XX,25,11,274,female,20
0,1,198,n,1,3*46,3*46=141,0.0,0,2,2407,na,Incorrect_Related,1,X*XX,3,46,141,female,20
0,7,199,n,1,55*3,55*3=220,0.0,2,3,2490,na,Incorrect_Related,1,XX*X,55,3,220,female,20
0,10,200,n,1,52-16,52-16=26,0.0,9,8,345,with_carry-over,First_Digit_Incorrect,1,XX-XX,52,16,26,female,20
0,8,201,n,1,75*6,75*6=451,0.0,0,8,994,na,Incorrect_Unrelated,1,XX*X,75,6,451,female,20
0,17,202,n,1,66-7,66-7=51,0.0,9,8,340,with_carry-over,Second_Digit_Incorrect,1,XX-X,66,7,51,female,20
0,1,203,n,1,9*24,9*24=207,0.0,0,8,664,na,Incorrect_Related,1,X*XX,9,24,207,female,20
0,17,204,c,-1,31-9,31-9=28,0.0,2,8,1879,with_carry-over,Second_Digit_Incorrect,0,XX-X,31,9,28,female,20
0,19,206,n,1,77-5,77-5=62,0.0,1,1,2134,without_carry-over,First_Digit_Incorrect,1,XX-X,77,5,62,female,20
0,7,207,n,1,61*8,61*8=549,0.0,0,9,497,na,Incorrect_Related,1,XX*X,61,8,549,female,20
0,19,208,n,1,58-6,58-6=42,0.0,1,1,1552,without_carry-over,First_Digit_Incorrect,1,XX-X,58,6,42,female,20
0,23,209,n,1,452-369,452-369=87,0.0,9,8,280,with_carry-over,Second_Digit_Incorrect,1,XXX-XXX,452,369,87,female,20
0,16,211,n,1,88-9,88-9=69,0.0,1,1,1439,with_carry-over,First_Digit_Incorrect,1,XX-X,88,9,69,female,20
0,32,213,n,1,279-45,279-45=224,0.0,9,8,436,without_carry-over,Middle_Digit_Incorrect,1,XXX-XX,279,45,224,female,20
0,31,215,n,1,963-52,963-52=919,0.0,9,3,634,without_carry-over,Last_Digit_Incorrect,1,XXX-XX,963,52,919,female,20
0,13,219,n,1,79-68,79-68=21,0.0,9,8,174,without_carry-over,First_Digit_Incorrect,1,XX-XX,79,68,21,female,20
0,32,220,n,1,398-66,398-66=322,0.0,8,9,1052,without_carry-over,Middle_Digit_Incorrect,1,XXX-XX,398,66,322,female,20
0,16,221,n,1,31-9,31-9=12,0.0,2,3,1849,with_carry-over,First_Digit_Incorrect,1,XX-X,31,9,12,female,20
0,7,222,n,1,15*7,15*7=90,0.0,0,9,1529,na,Incorrect_Related,1,XX*X,15,7,90,female,20
0,31,223,n,1,774-53,774-53=729,0.0,9,8,431,without_carry-over,Last_Digit_Incorrect,1,XXX-XX,774,53,729,female,20
0,25,224,n,1,339-111,339-111=222,0.0,9,8,351,without_carry-over,Last_Digit_Incorrect,1,XXX-XXX,339,111,222,female,20
0,20,225,n,1,59-1,59-1=52,0.0,1,1,1133,without_carry-over,Second_Digit_Incorrect,1,XX-X,59,1,52,female,20
0,17,226,n,1,71-9,71-9=68,0.0,2,2,2038,with_carry-over,Second_Digit_Incorrect,1,XX-X,71,9,68,female,20
0,8,227,n,1,55*3,55*3=166,0.0,0,9,307,na,Incorrect_Unrelated,1,XX*X,55,3,166,female,20
0,1,228,n,1,6*16,6*16=102,0.0,9,8,238,na,Incorrect_Related,1,X*XX,6,16,102,female,20
0,29,229,n,1,148-56,148-56=98,0.0,9,8,275,with_carry-over,Second_Digit_Incorrect,1,XXX-XX,148,56,98,female,20
0,26,230,n,1,479-105,479-105=384,0.0,9,8,299,without_carry-over,Middle_Digit_Incorrect,1,XXX-XXX,479,105,384,female,20
0,14,234,c,-1,79-68,79-68=19,0.0,9,3,244,without_carry-over,Second_Digit_Incorrect,0,XX-XX,79,68,19,female,20
0,10,236,n,1,75-26,75-26=59,0.0,9,3,252,with_carry-over,First_Digit_Incorrect,1,XX-XX,75,26,59,female,20
0,5,237,n,1,14*14,14*14=195,0.0,0,2,1167,na,Incorrect_Unrelated,1,XX*XX,14,14,195,female,20
0,28,238,n,1,123-66,123-66=67,0.0,9,2,535,with_carry-over,First_Digit_Incorrect,1,XXX-XX,123,66,67,female,20
0,8,239,n,1,15*7,15*7=104,0.0,0,9,291,na,Incorrect_Unrelated,1,XX*X,15,7,104,female,20
0,5,240,c,-1,50*21,50*21=1049,0.0,0,9,1146,na,Incorrect_Unrelated,0,XX*XX,50,21,1049,female,20
0,10,241,n,1,66-29,66-29=27,0.0,9,3,229,with_carry-over,First_Digit_Incorrect,1,XX-XX,66,29,27,female,20
0,14,242,n,1,98-64,98-64=36,0.0,9,3,861,without_carry-over,Second_Digit_Incorrect,1,XX-XX,98,64,36,female,20
0,19,243,n,1,99-8,99-8=81,0.0,1,1,1122,without_carry-over,First_Digit_Incorrect,1,XX-X,99,8,81,female,20
0,10,244,n,1,32-15,32-15=27,0.0,9,3,297,with_carry-over,First_Digit_Incorrect,1,XX-XX,32,15,27,female,20
0,19,245,n,1,45-4,45-4=31,0.0,1,1,1337,without_carry-over,First_Digit_Incorrect,1,XX-X,45,4,31,female,20
0,1,248,n,1,5*29,5*29=150,0.0,9,8,874,na,Incorrect_Related,1,X*XX,5,29,150,female,20
0,14,249,n,1,58-16,58-16=48,0.0,9,3,292,without_carry-over,Second_Digit_Incorrect,1,XX-XX,58,16,48,female,20
0,32,253,n,1,888-62,888-62=836,0.0,9,8,287,without_carry-over,Middle_Digit_Incorrect,1,XXX-XX,888,62,836,female,20
0,4,254,n,1,13*13,13*13=156,0.0,0,8,1733,na,Incorrect_Related,1,XX*XX,13,13,156,female,20
0,20,255,n,1,77-5,77-5=71,0.0,2,1,1257,without_carry-over,Second_Digit_Incorrect,1,XX-X,77,5,71,female,20
0,28,256,n,1,119-52,119-52=77,0.0,9,8,1483,with_carry-over,First_Digit_Incorrect,1,XXX-XX,119,52,77,female,20
0,28,259,n,1,156-63,156-63=83,0.0,9,3,255,with_carry-over,First_Digit_Incorrect,1,XXX-XX,156,63,83,female,20
0,29,261,n,1,172-99,172-99=77,0.0,9,8,252,with_carry-over,Second_Digit_Incorrect,1,XXX-XX,172,99,77,female,20
0,23,262,n,1,788-699,788-699=81,0.0,9,8,236,with_carry-over,Second_Digit_Incorrect,1,XXX-XXX,788,699,81,female,20
0,11,263,n,1,35-17,35-17=12,0.0,9,8,155,with_carry-over,Second_Digit_Incorrect,1,XX-XX,35,17,12,female,20
9,19,0,n,-1,45-4,45-4=31,1.0,3,9,1751,without_carry-over,First_Digit_Incorrect,0,XX-X,45,4,31,female,20
9,5,1,n,-1,13*13,13*13=168,1.0,3,3,1875,na,Incorrect_Unrelated,0,XX*XX,13,13,168,female,20
9,7,2,c,1,15*7,15*7=90,1.0,3,3,1594,na,Incorrect_Related,1,XX*X,15,7,90,female,20
9,26,3,n,-1,677-160,677-160=527,1.0,8,8,1677,without_carry-over,Middle_Digit_Incorrect,0,XXX-XXX,677,160,527,female,20
9,31,4,n,-1,465-22,465-22=447,1.0,8,8,1858,without_carry-over,Last_Digit_Incorrect,0,XXX-XX,465,22,447,female,20
9,25,5,n,-1,784-431,784-431=357,1.0,9,2,1867,without_carry-over,Last_Digit_Incorrect,0,XXX-XXX,784,431,357,female,20
9,32,7,n,-1,888-62,888-62=836,1.0,3,9,2272,without_carry-over,Middle_Digit_Incorrect,0,XXX-XX,888,62,836,female,20
9,28,8,n,-1,148-56,148-56=82,1.0,8,3,1607,with_carry-over,First_Digit_Incorrect,0,XXX-XX,148,56,82,female,20
9,17,9,n,-1,45-9,45-9=34,1.0,2,0,1517,with_carry-over,Second_Digit_Incorrect,0,XX-X,45,9,34,female,20
9,10,15,c,1,52-16,52-16=26,1.0,8,8,1633,with_carry-over,First_Digit_Incorrect,1,XX-XX,52,16,26,female,20
9,28,17,n,-1,119-52,119-52=77,1.0,8,8,1605,with_carry-over,First_Digit_Incorrect,0,XXX-XX,119,52,77,female,20
9,17,18,n,-1,94-8,94-8=84,1.0,8,_,0,with_carry-over,Second_Digit_Incorrect,0,XX-X,94,8,84,female,20
9,32,22,c,1,398-66,398-66=322,1.0,3,8,802,without_carry-over,Middle_Digit_Incorrect,1,XXX-XX,398,66,322,female,20
9,32,24,n,-1,599-63,599-63=553,1.0,3,_,0,without_carry-over,Middle_Digit_Incorrect,0,XXX-XX,599,63,553,female,20
9,23,25,n,-1,788-699,788-699=81,1.0,8,8,1910,with_carry-over,Second_Digit_Incorrect,0,XXX-XXX,788,699,81,female,20
9,16,27,n,-1,51-9,51-9=32,1.0,8,9,1186,with_carry-over,First_Digit_Incorrect,0,XX-X,51,9,32,female,20
9,19,28,c,1,38-2,38-2=26,1.0,8,0,2867,without_carry-over,First_Digit_Incorrect,1,XX-X,38,2,26,female,20
9,4,29,n,-1,13*13,13*13=156,1.0,8,_,0,na,Incorrect_Related,0,XX*XX,13,13,156,female,20
9,4,30,n,-1,14*14,14*14=182,1.0,8,9,1279,na,Incorrect_Related,0,XX*XX,14,14,182,female,20
9,5,32,c,1,50*21,50*21=1049,1.0,8,3,1801,na,Incorrect_Unrelated,1,XX*XX,50,21,1049,female,20
9,19,33,n,-1,58-6,58-6=42,1.0,8,9,2505,without_carry-over,First_Digit_Incorrect,0,XX-X,58,6,42,female,20
9,11,34,n,-1,32-15,32-15=13,1.0,3,8,1733,with_carry-over,Second_Digit_Incorrect,0,XX-XX,32,15,13,female,20
9,20,35,c,1,58-6,58-6=51,1.0,8,8,993,without_carry-over,Second_Digit_Incorrect,1,XX-X,58,6,51,female,20
9,23,37,n,-1,326-253,326-253=77,1.0,8,8,1117,with_carry-over,Second_Digit_Incorrect,0,XXX-XXX,326,253,77,female,20
9,17,38,n,-1,66-7,66-7=51,1.0,3,8,1754,with_carry-over,Second_Digit_Incorrect,0,XX-X,66,7,51,female,20
9,22,39,c,1,537-444,537-444=83,1.0,3,8,809,with_carry-over,First_Digit_Incorrect,1,XXX-XXX,537,444,83,female,20
9,13,40,c,1,79-68,79-68=21,1.0,8,3,121,without_carry-over,First_Digit_Incorrect,1,XX-XX,79,68,21,female,20
9,13,42,n,-1,39-18,39-18=11,1.0,3,3,1339,without_carry-over,First_Digit_Incorrect,0,XX-XX,39,18,11,female,20
9,1,43,n,-1,7*21,7*21=140,1.0,8,3,476,na,Incorrect_Related,0,X*XX,7,21,140,female,20
9,20,45,n,-1,67-3,67-3=66,1.0,8,8,1533,without_carry-over,Second_Digit_Incorrect,0,XX-X,67,3,66,female,20
9,32,46,c,1,279-45,279-45=224,1.0,8,3,1097,without_carry-over,Middle_Digit_Incorrect,1,XXX-XX,279,45,224,female,20
9,11,48,n,-1,91-57,91-57=36,1.0,8,9,1480,with_carry-over,Second_Digit_Incorrect,0,XX-XX,91,57,36,female,20
9,28,49,c,1,156-63,156-63=83,1.0,8,0,1452,with_carry-over,First_Digit_Incorrect,1,XXX-XX,156,63,83,female,20
9,19,50,n,-1,99-8,99-8=81,1.0,8,0,2172,without_carry-over,First_Digit_Incorrect,0,XX-X,99,8,81,female,20
9,10,51,c,1,66-29,66-29=27,1.0,8,0,1573,with_carry-over,First_Digit_Incorrect,1,XX-XX,66,29,27,female,20
9,10,53,n,-1,75-26,75-26=59,1.0,8,8,1392,with_carry-over,First_Digit_Incorrect,0,XX-XX,75,26,59,female,20
9,22,54,n,-1,452-369,452-369=93,1.0,8,3,352,with_carry-over,First_Digit_Incorrect,0,XXX-XXX,452,369,93,female,20
9,4,55,n,-1,11*11,11*11=132,1.0,8,8,583,na,Incorrect_Related,0,XX*XX,11,11,132,female,20
9,31,57,c,1,888-62,888-62=824,1.0,3,1,2574,without_carry-over,Last_Digit_Incorrect,1,XXX-XX,888,62,824,female,20
9,22,62,n,-1,254-188,254-188=76,1.0,8,8,2100,with_carry-over,First_Digit_Incorrect,0,XXX-XXX,254,188,76,female,20
9,26,63,c,1,495-244,495-244=261,1.0,8,8,2413,without_carry-over,Middle_Digit_Incorrect,1,XXX-XXX,495,244,261,female,20
9,29,64,n,-1,156-63,156-63=97,1.0,8,8,1503,with_carry-over,Second_Digit_Incorrect,0,XXX-XX,156,63,97,female,20
9,7,65,c,1,75*6,75*6=525,1.0,3,2,2154,na,Incorrect_Related,1,XX*X,75,6,525,female,20
9,14,67,c,1,64-12,64-12=58,1.0,8,3,2788,without_carry-over,Second_Digit_Incorrect,1,XX-XX,64,12,58,female,20
9,11,68,n,-1,35-17,35-17=12,1.0,3,3,538,with_carry-over,Second_Digit_Incorrect,0,XX-XX,35,17,12,female,20
9,31,70,n,-1,599-63,599-63=567,1.0,3,3,361,without_carry-over,Last_Digit_Incorrect,0,XXX-XX,599,63,567,female,20
9,13,71,c,1,82-71,82-71=21,1.0,3,3,98,without_carry-over,First_Digit_Incorrect,1,XX-XX,82,71,21,female,20
9,8,72,n,-1,24*5,24*5=119,1.0,3,3,1125,na,Incorrect_Unrelated,0,XX*X,24,5,119,female,20
9,5,74,n,-1,11*11,11*11=122,1.0,8,3,453,na,Incorrect_Unrelated,0,XX*XX,11,11,122,female,20
9,14,75,n,-1,79-68,79-68=19,1.0,3,2,2787,without_carry-over,Second_Digit_Incorrect,0,XX-XX,79,68,19,female,20
9,20,77,n,-1,77-5,77-5=71,1.0,3,3,657,without_carry-over,Second_Digit_Incorrect,0,XX-X,77,5,71,female,20
9,22,78,n,-1,882-795,882-795=77,1.0,8,3,1788,with_carry-over,First_Digit_Incorrect,0,XXX-XXX,882,795,77,female,20
9,16,80,n,-1,66-7,66-7=49,1.0,3,_,0,with_carry-over,First_Digit_Incorrect,0,XX-X,66,7,49,female,20
9,32,81,n,-1,774-53,774-53=711,1.0,3,8,2524,without_carry-over,Middle_Digit_Incorrect,0,XXX-XX,774,53,711,female,20
9,32,82,c,1,465-22,465-22=453,1.0,3,8,2888,without_carry-over,Middle_Digit_Incorrect,1,XXX-XX,465,22,453,female,20
9,28,83,n,-1,132-55,132-55=87,1.0,3,8,1630,with_carry-over,First_Digit_Incorrect,0,XXX-XX,132,55,87,female,20
9,5,84,n,-1,25*11,25*11=274,1.0,3,8,990,na,Incorrect_Unrelated,0,XX*XX,25,11,274,female,20
9,8,85,c,1,61*8,61*8=489,1.0,3,8,705,na,Incorrect_Unrelated,1,XX*X,61,8,489,female,20
9,16,87,n,-1,94-8,94-8=76,1.0,8,9,1569,with_carry-over,First_Digit_Incorrect,0,XX-X,94,8,76,female,20
9,4,89,n,-1,12*12,12*12=132,1.0,0,3,202,na,Incorrect_Related,0,XX*XX,12,12,132,female,20
9,16,90,c,1,31-9,31-9=12,1.0,3,8,609,with_carry-over,First_Digit_Incorrect,1,XX-X,31,9,12,female,20
9,16,91,n,-1,71-9,71-9=52,1.0,9,2,443,with_carry-over,First_Digit_Incorrect,0,XX-X,71,9,52,female,20
9,13,93,n,-1,72-51,72-51=11,1.0,2,0,374,without_carry-over,First_Digit_Incorrect,0,XX-XX,72,51,11,female,20
9,29,94,n,-1,132-55,132-55=73,1.0,3,3,497,with_carry-over,Second_Digit_Incorrect,0,XXX-XX,132,55,73,female,20
9,17,95,n,-1,42-5,42-5=33,1.0,2,9,364,with_carry-over,Second_Digit_Incorrect,0,XX-X,42,5,33,female,20
9,16,97,n,-1,88-9,88-9=69,1.0,2,8,1948,with_carry-over,First_Digit_Incorrect,0,XX-X,88,9,69,female,20
9,1,98,n,-1,8*31,8*31=240,1.0,3,8,1776,na,Incorrect_Related,0,X*XX,8,31,240,female,20
9,29,99,n,-1,148-56,148-56=98,1.0,3,3,1091,with_carry-over,Second_Digit_Incorrect,0,XXX-XX,148,56,98,female,20
9,4,100,n,-1,25*18,25*18=475,1.0,3,3,2149,na,Incorrect_Related,0,XX*XX,25,18,475,female,20
9,22,101,n,-1,652-559,652-559=83,1.0,3,3,2026,with_carry-over,First_Digit_Incorrect,0,XXX-XXX,652,559,83,female,20
9,31,102,c,1,663-22,663-22=649,1.0,8,3,2310,without_carry-over,Last_Digit_Incorrect,1,XXX-XX,663,22,649,female,20
9,11,104,c,1,46-27,46-27=11,1.0,3,8,620,with_carry-over,Second_Digit_Incorrect,1,XX-XX,46,27,11,female,20
9,25,106,n,-1,339-111,339-111=222,1.0,3,8,2422,without_carry-over,Last_Digit_Incorrect,0,XXX-XXX,339,111,222,female,20
9,23,107,n,-1,537-444,537-444=97,1.0,3,8,1050,with_carry-over,Second_Digit_Incorrect,0,XXX-XXX,537,444,97,female,20
9,2,109,c,1,6*16,6*16=97,1.0,3,3,2292,na,Incorrect_Unrelated,1,X*XX,6,16,97,female,20
9,2,111,n,-1,7*21,7*21=146,1.0,8,3,1021,na,Incorrect_Unrelated,0,X*XX,7,21,146,female,20
9,25,114,n,-1,495-244,495-244=259,1.0,3,3,1306,without_carry-over,Last_Digit_Incorrect,0,XXX-XXX,495,244,259,female,20
9,8,115,n,-1,75*6,75*6=451,1.0,3,3,237,na,Incorrect_Unrelated,0,XX*X,75,6,451,female,20
9,20,117,n,-1,45-4,45-4=42,1.0,3,_,0,without_carry-over,Second_Digit_Incorrect,0,XX-X,45,4,42,female,20
9,25,118,c,1,479-105,479-105=376,1.0,3,3,936,without_carry-over,Last_Digit_Incorrect,1,XXX-XXX,479,105,376,female,20
9,4,119,n,-1,50*21,50*21=1000,1.0,3,8,271,na,Incorrect_Related,0,XX*XX,50,21,1000,female,20
9,4,121,c,1,15*31,15*31=480,1.0,3,3,2750,na,Incorrect_Related,1,XX*XX,15,31,480,female,20
9,23,123,n,-1,263-177,263-177=84,1.0,3,3,1942,with_carry-over,Second_Digit_Incorrect,0,XXX-XXX,263,177,84,female,20
9,25,124,n,-1,888-574,888-574=316,1.0,8,_,0,without_carry-over,Last_Digit_Incorrect,0,XXX-XXX,888,574,316,female,20
9,7,125,c,1,55*3,55*3=220,1.0,8,8,1841,na,Incorrect_Related,1,XX*X,55,3,220,female,20
9,19,126,n,-1,67-3,67-3=54,1.0,3,8,1899,without_carry-over,First_Digit_Incorrect,0,XX-X,67,3,54,female,20
9,8,128,n,-1,15*7,15*7=104,1.0,3,8,1137,na,Incorrect_Unrelated,0,XX*X,15,7,104,female,20
9,5,129,c,1,25*18,25*18=451,1.0,8,3,1768,na,Incorrect_Unrelated,1,XX*XX,25,18,451,female,20
9,2,131,n,-1,8*31,8*31=247,1.0,3,3,1081,na,Incorrect_Unrelated,0,X*XX,8,31,247,female,20
9,14,133,c,1,39-18,39-18=29,1.0,8,3,479,without_carry-over,Second_Digit_Incorrect,1,XX-XX,39,18,29,female,20
9,7,134,c,1,61*8,61*8=549,1.0,8,8,193,na,Incorrect_Related,1,XX*X,61,8,549,female,20
9,13,135,c,1,46-12,46-12=24,1.0,8,2,848,without_carry-over,First_Digit_Incorrect,1,XX-XX,46,12,24,female,20
9,20,136,n,-1,85-2,85-2=82,1.0,3,_,0,without_carry-over,Second_Digit_Incorrect,0,XX-X,85,2,82,female,20
9,26,139,c,1,888-574,888-574=304,1.0,8,9,1631,without_carry-over,Middle_Digit_Incorrect,1,XXX-XXX,888,574,304,female,20
9,5,140,n,-1,15*31,15*31=466,1.0,2,2,914,na,Incorrect_Unrelated,0,XX*XX,15,31,466,female,20
9,7,142,n,-1,10*9,10*9=80,1.0,3,3,633,na,Incorrect_Related,0,XX*X,10,9,80,female,20
9,28,144,c,1,123-66,123-66=67,1.0,3,8,2482,with_carry-over,First_Digit_Incorrect,1,XXX-XX,123,66,67,female,20
9,13,146,n,-1,58-16,58-16=32,1.0,8,9,1819,without_carry-over,First_Digit_Incorrect,0,XX-XX,58,16,32,female,20
9,14,147,n,-1,46-12,46-12=36,1.0,3,8,1099,without_carry-over,Second_Digit_Incorrect,0,XX-XX,46,12,36,female,20
9,19,148,c,1,85-2,85-2=73,1.0,8,0,1945,without_carry-over,First_Digit_Incorrect,1,XX-X,85,2,73,female,20
9,2,149,c,1,5*29,5*29=146,1.0,3,8,1492,na,Incorrect_Unrelated,1,X*XX,5,29,146,female,20
9,29,150,c,1,123-66,123-66=53,1.0,3,8,2335,with_carry-over,Second_Digit_Incorrect,1,XXX-XX,123,66,53,female,20
9,13,152,c,1,64-12,64-12=42,1.0,3,9,2638,without_carry-over,First_Digit_Incorrect,1,XX-XX,64,12,42,female,20
9,31,156,n,-1,774-53,774-53=729,1.0,3,8,2156,without_carry-over,Last_Digit_Incorrect,0,XXX-XX,774,53,729,female,20
9,2,157,c,1,3*46,3*46=139,1.0,3,3,2254,na,Incorrect_Unrelated,1,X*XX,3,46,139,female,20
9,17,158,c,1,31-9,31-9=28,1.0,2,8,2826,with_carry-over,Second_Digit_Incorrect,1,XX-X,31,9,28,female,20
9,28,159,n,-1,169-85,169-85=94,1.0,3,_,0,with_carry-over,First_Digit_Incorrect,0,XXX-XX,169,85,94,female,20
9,1,161,n,-1,6*16,6*16=102,1.0,8,_,0,na,Incorrect_Related,0,X*XX,6,16,102,female,20
9,25,164,c,1,576-225,576-225=359,1.0,8,1,2583,without_carry-over,Last_Digit_Incorrect,1,XXX-XXX,576,225,359,female,20
9,20,166,c,1,38-2,38-2=34,1.0,8,0,2701,without_carry-over,Second_Digit_Incorrect,1,XX-X,38,2,34,female,20
9,29,167,c,1,119-52,119-52=63,1.0,8,0,2659,with_carry-over,Second_Digit_Incorrect,1,XXX-XX,119,52,63,female,20
9,10,169,n,-1,35-17,35-17=28,1.0,3,8,2554,with_carry-over,First_Digit_Incorrect,0,XX-XX,35,17,28,female,20
9,14,170,n,-1,58-16,58-16=48,1.0,8,8,0,without_carry-over,Second_Digit_Incorrect,0,XX-XX,58,16,48,female,20
9,19,171,c,1,59-1,59-1=48,1.0,8,0,1333,without_carry-over,First_Digit_Incorrect,1,XX-X,59,1,48,female,20
9,19,172,n,-1,77-5,77-5=62,1.0,8,9,2366,without_carry-over,First_Digit_Incorrect,0,XX-X,77,5,62,female,20
9,26,173,c,1,479-105,479-105=384,1.0,8,8,2857,without_carry-over,Middle_Digit_Incorrect,1,XXX-XXX,479,105,384,female,20
9,1,174,c,1,3*46,3*46=141,1.0,8,2,2013,na,Incorrect_Related,1,X*XX,3,46,141,female,20
9,5,175,c,1,14*14,14*14=195,1.0,2,9,625,na,Incorrect_Unrelated,1,XX*XX,14,14,195,female,20
9,10,177,c,1,91-57,91-57=24,1.0,2,2,474,with_carry-over,First_Digit_Incorrect,1,XX-XX,91,57,24,female,20
9,23,179,c,1,882-795,882-795=83,1.0,9,2,938,with_carry-over,Second_Digit_Incorrect,1,XXX-XXX,882,795,83,female,20
9,1,180,n,-1,9*24,9*24=207,1.0,9,9,401,na,Incorrect_Related,0,X*XX,9,24,207,female,20
9,17,181,n,-1,88-9,88-9=71,1.0,9,_,143,with_carry-over,Second_Digit_Incorrect,0,XX-X,88,9,71,female,20
9,26,182,n,-1,339-111,339-111=218,1.0,3,3,105,without_carry-over,Middle_Digit_Incorrect,0,XXX-XXX,339,111,218,female,20
9,8,183,n,-1,10*9,10*9=89,1.0,8,1,1324,na,Incorrect_Unrelated,0,XX*X,10,9,89,female,20
9,10,184,c,1,46-27,46-27=29,1.0,8,2,264,with_carry-over,First_Digit_Incorrect,1,XX-XX,46,27,29,female,20
9,17,188,c,1,51-9,51-9=48,1.0,3,1,824,with_carry-over,Second_Digit_Incorrect,1,XX-X,51,9,48,female,20
9,1,189,c,1,5*29,5*29=150,1.0,8,9,904,na,Incorrect_Related,1,X*XX,5,29,150,female,20
9,10,190,n,-1,81-37,81-37=54,1.0,9,3,0,with_carry-over,First_Digit_Incorrect,0,XX-XX,81,37,54,female,20
9,13,191,n,-1,98-64,98-64=24,1.0,3,_,603,without_carry-over,First_Digit_Incorrect,0,XX-XX,98,64,24,female,20
9,16,194,c,1,42-5,42-5=27,1.0,0,8,1342,with_carry-over,First_Digit_Incorrect,1,XX-X,42,5,27,female,20
9,29,196,n,-1,105-22,105-22=87,1.0,2,9,2063,with_carry-over,Second_Digit_Incorrect,0,XXX-XX,105,22,87,female,20
9,23,198,c,1,452-369,452-369=87,1.0,2,2,365,with_carry-over,Second_Digit_Incorrect,1,XXX-XXX,452,369,87,female,20
9,1,200,n,-1,2*98,2*98=198,1.0,8,9,1768,na,Incorrect_Related,0,X*XX,2,98,198,female,20
9,22,201,n,-1,788-699,788-699=79,1.0,0,_,0,with_carry-over,First_Digit_Incorrect,0,XXX-XXX,788,699,79,female,20
9,2,202,c,1,4*56,4*56=223,1.0,9,2,136,na,Incorrect_Unrelated,1,X*XX,4,56,223,female,20
9,2,203,c,1,2*98,2*98=197,1.0,8,8,436,na,Incorrect_Unrelated,1,X*XX,2,98,197,female,20
9,25,207,c,1,989-577,989-577=418,1.0,8,8,1647,without_carry-over,Last_Digit_Incorrect,1,XXX-XXX,989,577,418,female,20
9,8,208,c,1,87*2,87*2=175,1.0,8,8,516,na,Incorrect_Unrelated,1,XX*X,87,2,175,female,20
9,23,210,n,-1,254-188,254-188=64,1.0,9,0,60,with_carry-over,Second_Digit_Incorrect,0,XXX-XXX,254,188,64,female,20
9,11,214,c,1,81-37,81-37=46,1.0,2,8,568,with_carry-over,Second_Digit_Incorrect,1,XX-XX,81,37,46,female,20
9,8,215,n,-1,16*4,16*4=65,1.0,0,3,719,na,Incorrect_Unrelated,0,XX*X,16,4,65,female,20
9,26,217,c,1,784-431,784-431=343,1.0,3,0,1029,without_carry-over,Middle_Digit_Incorrect,1,XXX-XXX,784,431,343,female,20
9,31,218,c,1,963-52,963-52=919,1.0,9,9,742,without_carry-over,Last_Digit_Incorrect,1,XXX-XX,963,52,919,female,20
9,7,219,c,1,16*4,16*4=80,1.0,2,2,275,na,Incorrect_Related,1,XX*X,16,4,80,female,20
9,11,223,n,-1,66-29,66-29=33,1.0,9,2,434,with_carry-over,Second_Digit_Incorrect,0,XX-XX,66,29,33,female,20
9,32,226,n,-1,663-22,663-22=631,1.0,8,9,2350,without_carry-over,Middle_Digit_Incorrect,0,XXX-XX,663,22,631,female,20
9,22,227,n,-1,326-253,326-253=83,1.0,8,8,2828,with_carry-over,First_Digit_Incorrect,0,XXX-XXX,326,253,83,female,20
9,7,228,c,1,24*5,24*5=96,1.0,8,9,1787,na,Incorrect_Related,1,XX*X,24,5,96,female,20
9,29,229,c,1,169-85,169-85=86,1.0,3,9,1090,with_carry-over,Second_Digit_Incorrect,1,XXX-XX,169,85,86,female,20
9,11,231,c,1,75-26,75-26=41,1.0,8,9,1315,with_carry-over,Second_Digit_Incorrect,1,XX-XX,75,26,41,female,20
9,28,232,n,-1,105-22,105-22=93,1.0,3,8,983,with_carry-over,First_Digit_Incorrect,0,XXX-XX,105,22,93,female,20
9,25,233,n,-1,677-160,677-160=513,1.0,3,8,2101,without_carry-over,Last_Digit_Incorrect,0,XXX-XXX,677,160,513,female,20
9,28,234,n,-1,172-99,172-99=83,1.0,3,8,2636,with_carry-over,First_Digit_Incorrect,0,XXX-XX,172,99,83,female,20
9,31,235,n,-1,398-66,398-66=338,1.0,3,8,2323,without_carry-over,Last_Digit_Incorrect,0,XXX-XX,398,66,338,female,20
9,11,236,n,-1,52-16,52-16=34,1.0,3,8,2824,with_carry-over,Second_Digit_Incorrect,0,XX-XX,52,16,34,female,20
9,16,237,n,-1,45-9,45-9=26,1.0,3,_,0,with_carry-over,First_Digit_Incorrect,0,XX-X,45,9,26,female,20
9,8,238,n,-1,55*3,55*3=166,1.0,2,9,34,na,Incorrect_Unrelated,0,XX*X,55,3,166,female,20
9,10,239,n,-1,32-15,32-15=27,1.0,8,3,234,with_carry-over,First_Digit_Incorrect,0,XX-XX,32,15,27,female,20
9,7,240,n,-1,87*2,87*2=261,1.0,2,3,79,na,Incorrect_Related,0,XX*X,87,2,261,female,20
9,14,242,c,1,98-64,98-64=36,1.0,8,8,38,without_carry-over,Second_Digit_Incorrect,1,XX-XX,98,64,36,female,20
9,32,243,c,1,963-52,963-52=921,1.0,3,0,406,without_carry-over,Middle_Digit_Incorrect,1,XXX-XX,963,52,921,female,20
9,22,244,c,1,263-177,263-177=96,1.0,8,8,261,with_carry-over,First_Digit_Incorrect,1,XXX-XXX,263,177,96,female,20
9,2,245,c,1,9*24,9*24=215,1.0,8,9,671,na,Incorrect_Unrelated,1,X*XX,9,24,215,female,20
9,17,246,n,-1,71-9,71-9=68,1.0,3,9,1643,with_carry-over,Second_Digit_Incorrect,0,XX-X,71,9,68,female,20
9,26,247,c,1,576-225,576-225=341,1.0,3,9,2627,without_carry-over,Middle_Digit_Incorrect,1,XXX-XXX,576,225,341,female,20
9,26,248,c,1,989-577,989-577=422,1.0,8,9,1869,without_carry-over,Middle_Digit_Incorrect,1,XXX-XXX,989,577,422,female,20
9,14,249,n,-1,72-51,72-51=29,1.0,3,9,1994,without_carry-over,Second_Digit_Incorrect,0,XX-XX,72,51,29,female,20
9,31,250,n,-1,279-45,279-45=236,1.0,2,9,2530,without_carry-over,Last_Digit_Incorrect,0,XXX-XX,279,45,236,female,20
9,20,251,c,1,59-1,59-1=52,1.0,3,0,2106,without_carry-over,Second_Digit_Incorrect,1,XX-X,59,1,52,female,20
9,4,253,c,1,25*11,25*11=250,1.0,8,0,2272,na,Incorrect_Related,1,XX*XX,25,11,250,female,20
9,5,255,c,1,12*12,12*12=143,1.0,8,9,2029,na,Incorrect_Unrelated,1,XX*XX,12,12,143,female,20
9,29,256,c,1,172-99,172-99=77,1.0,3,9,2915,with_carry-over,Second_Digit_Incorrect,1,XXX-XX,172,99,77,female,20
9,14,258,c,1,82-71,82-71=19,1.0,3,8,141,without_carry-over,Second_Digit_Incorrect,1,XX-XX,82,71,19,female,20
9,23,259,n,-1,652-559,652-559=97,1.0,3,2,369,with_carry-over,Second_Digit_Incorrect,0,XXX-XXX,652,559,97,female,20
9,1,260,c,1,4*56,4*56=220,1.0,3,9,1106,na,Incorrect_Related,1,X*XX,4,56,220,female,20
9,20,263,n,-1,99-8,99-8=92,1.0,8,9,381,without_carry-over,Second_Digit_Incorrect,0,XX-X,99,8,92,female,20
10,5,0,n,1,12*12,12*12=143,0.0,2,3,1743,na,Incorrect_Unrelated,1,XX*XX,12,12,143,female,22
10,13,2,n,1,72-51,72-51=11,0.0,2,1,1413,without_carry-over,First_Digit_Incorrect,1,XX-XX,72,51,11,female,22
10,5,4,n,1,25*18,25*18=451,0.0,3,3,1773,na,Incorrect_Unrelated,1,XX*XX,25,18,451,female,22
10,4,6,n,1,50*21,50*21=1000,0.0,2,3,2683,na,Incorrect_Related,1,XX*XX,50,21,1000,female,22
10,8,7,n,1,16*4,16*4=65,0.0,2,1,2575,na,Incorrect_Unrelated,1,XX*X,16,4,65,female,22
10,8,8,n,1,24*5,24*5=119,0.0,2,2,1690,na,Incorrect_Unrelated,1,XX*X,24,5,119,female,22
10,19,11,n,1,45-4,45-4=31,0.0,2,1,2253,without_carry-over,First_Digit_Incorrect,1,XX-X,45,4,31,female,22
10,29,12,n,1,132-55,132-55=73,0.0,2,2,2022,with_carry-over,Second_Digit_Incorrect,1,XXX-XX,132,55,73,female,22
10,26,14,n,1,989-577,989-577=422,0.0,3,3,2175,without_carry-over,Middle_Digit_Incorrect,1,XXX-XXX,989,577,422,female,22
10,13,18,c,-1,79-68,79-68=21,0.0,3,2,1931,without_carry-over,First_Digit_Incorrect,0,XX-XX,79,68,21,female,22
10,1,19,n,1,8*31,8*31=240,0.0,3,3,2910,na,Incorrect_Related,1,X*XX,8,31,240,female,22
10,20,22,n,1,67-3,67-3=66,0.0,3,1,2020,without_carry-over,Second_Digit_Incorrect,1,XX-X,67,3,66,female,22
10,31,24,n,1,888-62,888-62=824,0.0,2,1,2398,without_carry-over,Last_Digit_Incorrect,1,XXX-XX,888,62,824,female,22
10,11,25,c,-1,81-37,81-37=46,0.0,2,3,1449,with_carry-over,Second_Digit_Incorrect,0,XX-XX,81,37,46,female,22
10,1,27,n,1,3*46,3*46=141,0.0,3,2,2532,na,Incorrect_Related,1,X*XX,3,46,141,female,22
10,22,28,n,1,326-253,326-253=83,0.0,2,8,2212,with_carry-over,First_Digit_Incorrect,1,XXX-XXX,326,253,83,female,22
10,29,29,n,1,105-22,105-22=87,0.0,2,2,2505,with_carry-over,Second_Digit_Incorrect,1,XXX-XX,105,22,87,female,22
10,19,30,n,1,38-2,38-2=26,0.0,1,1,1477,without_carry-over,First_Digit_Incorrect,1,XX-X,38,2,26,female,22
10,13,31,n,1,46-12,46-12=24,0.0,1,1,1912,without_carry-over,First_Digit_Incorrect,1,XX-XX,46,12,24,female,22
10,20,32,c,-1,45-4,45-4=42,0.0,1,0,1411,without_carry-over,Second_Digit_Incorrect,0,XX-X,45,4,42,female,22
10,31,34,n,1,599-63,599-63=567,0.0,2,1,2504,without_carry-over,Last_Digit_Incorrect,1,XXX-XX,599,63,567,female,22
10,20,35,n,1,58-6,58-6=51,0.0,1,1,1481,without_carry-over,Second_Digit_Incorrect,1,XX-X,58,6,51,female,22
10,17,36,c,-1,45-9,45-9=34,0.0,1,_,0,with_carry-over,Second_Digit_Incorrect,0,XX-X,45,9,34,female,22
10,4,38,n,1,25*11,25*11=250,0.0,3,1,2186,na,Incorrect_Related,1,XX*XX,25,11,250,female,22
10,29,40,c,-1,148-56,148-56=98,0.0,2,2,1829,with_carry-over,Second_Digit_Incorrect,0,XXX-XX,148,56,98,female,22
10,29,42,c,-1,119-52,119-52=63,0.0,3,_,0,with_carry-over,Second_Digit_Incorrect,0,XXX-XX,119,52,63,female,22
10,5,44,n,1,50*21,50*21=1049,0.0,3,3,1482,na,Incorrect_Unrelated,1,XX*XX,50,21,1049,female,22
10,25,45,n,1,479-105,479-105=376,0.0,3,1,2487,without_carry-over,Last_Digit_Incorrect,1,XXX-XXX,479,105,376,female,22
10,14,46,n,1,98-64,98-64=36,0.0,2,1,2028,without_carry-over,Second_Digit_Incorrect,1,XX-XX,98,64,36,female,22
10,10,47,c,-1,32-15,32-15=27,0.0,2,1,1267,with_carry-over,First_Digit_Incorrect,0,XX-XX,32,15,27,female,22
10,10,48,c,-1,81-37,81-37=54,0.0,2,8,1447,with_carry-over,First_Digit_Incorrect,0,XX-XX,81,37,54,female,22
10,17,50,n,1,94-8,94-8=84,0.0,2,1,2070,with_carry-over,Second_Digit_Incorrect,1,XX-X,94,8,84,female,22
10,26,51,c,-1,677-160,677-160=527,0.0,2,3,2365,without_carry-over,Middle_Digit_Incorrect,0,XXX-XXX,677,160,527,female,22
10,2,53,c,-1,4*56,4*56=223,0.0,2,3,1619,na,Incorrect_Unrelated,0,X*XX,4,56,223,female,22
10,32,54,n,1,599-63,599-63=553,0.0,2,1,2035,without_carry-over,Middle_Digit_Incorrect,1,XXX-XX,599,63,553,female,22
10,8,55,n,1,10*9,10*9=89,0.0,1,1,1014,na,Incorrect_Unrelated,1,XX*X,10,9,89,female,22
10,8,56,c,-1,61*8,61*8=489,0.0,2,3,1862,na,Incorrect_Unrelated,0,XX*X,61,8,489,female,22
10,25,57,n,1,888-574,888-574=316,0.0,3,8,2779,without_carry-over,Last_Digit_Incorrect,1,XXX-XXX,888,574,316,female,22
10,32,59,c,-1,888-62,888-62=836,0.0,2,3,2379,without_carry-over,Middle_Digit_Incorrect,0,XXX-XX,888,62,836,female,22
10,28,61,c,-1,123-66,123-66=67,0.0,9,3,2693,with_carry-over,First_Digit_Incorrect,0,XXX-XX,123,66,67,female,22
10,26,64,c,-1,888-574,888-574=304,0.0,9,3,2445,without_carry-over,Middle_Digit_Incorrect,0,XXX-XXX,888,574,304,female,22
10,8,66,n,1,55*3,55*3=166,0.0,3,3,2245,na,Incorrect_Unrelated,1,XX*X,55,3,166,female,22
10,29,67,c,-1,169-85,169-85=86,0.0,8,3,2083,with_carry-over,Second_Digit_Incorrect,0,XXX-XX,169,85,86,female,22
10,8,68,c,-1,75*6,75*6=451,0.0,8,_,0,na,Incorrect_Unrelated,0,XX*X,75,6,451,female,22
10,14,69,c,-1,79-68,79-68=19,0.0,3,3,1154,without_carry-over,Second_Digit_Incorrect,0,XX-XX,79,68,19,female,22
10,5,70,n,1,13*13,13*13=168,0.0,3,3,2880,na,Incorrect_Unrelated,1,XX*XX,13,13,168,female,22
10,13,71,n,1,58-16,58-16=32,0.0,2,1,1913,without_carry-over,First_Digit_Incorrect,1,XX-XX,58,16,32,female,22
10,25,72,c,-1,784-431,784-431=357,0.0,2,3,1713,without_carry-over,Last_Digit_Incorrect,0,XXX-XXX,784,431,357,female,22
10,31,73,n,1,663-22,663-22=649,0.0,2,1,2817,without_carry-over,Last_Digit_Incorrect,1,XXX-XX,663,22,649,female,22
10,16,75,n,1,88-9,88-9=69,0.0,1,1,1057,with_carry-over,First_Digit_Incorrect,1,XX-X,88,9,69,female,22
10,31,76,n,1,774-53,774-53=729,0.0,2,1,1612,without_carry-over,Last_Digit_Incorrect,1,XXX-XX,774,53,729,female,22
10,28,77,n,1,132-55,132-55=87,0.0,2,1,1344,with_carry-over,First_Digit_Incorrect,1,XXX-XX,132,55,87,female,22
10,16,78,n,1,94-8,94-8=76,0.0,1,1,1639,with_carry-over,First_Digit_Incorrect,1,XX-X,94,8,76,female,22
10,16,80,n,1,45-9,45-9=26,0.0,2,1,1432,with_carry-over,First_Digit_Incorrect,1,XX-X,45,9,26,female,22
10,28,82,c,-1,172-99,172-99=83,0.0,2,2,2320,with_carry-over,First_Digit_Incorrect,0,XXX-XX,172,99,83,female,22
10,23,83,c,-1,788-699,788-699=81,0.0,3,3,1858,with_carry-over,Second_Digit_Incorrect,0,XXX-XXX,788,699,81,female,22
10,29,85,n,1,123-66,123-66=53,0.0,3,1,1691,with_carry-over,Second_Digit_Incorrect,1,XXX-XX,123,66,53,female,22
10,20,90,n,1,59-1,59-1=52,0.0,1,1,930,without_carry-over,Second_Digit_Incorrect,1,XX-X,59,1,52,female,22
10,11,92,c,-1,91-57,91-57=36,0.0,3,8,2185,with_carry-over,Second_Digit_Incorrect,0,XX-XX,91,57,36,female,22
10,19,93,n,1,58-6,58-6=42,0.0,1,1,1007,without_carry-over,First_Digit_Incorrect,1,XX-X,58,6,42,female,22
10,16,94,n,1,42-5,42-5=27,0.0,1,1,1025,with_carry-over,First_Digit_Incorrect,1,XX-X,42,5,27,female,22
10,5,95,c,-1,11*11,11*11=122,0.0,2,2,1063,na,Incorrect_Unrelated,0,XX*XX,11,11,122,female,22
10,1,96,n,1,7*21,7*21=140,0.0,2,1,1313,na,Incorrect_Related,1,X*XX,7,21,140,female,22
10,14,97,n,1,82-71,82-71=19,0.0,2,1,1064,without_carry-over,Second_Digit_Incorrect,1,XX-XX,82,71,19,female,22
10,10,98,c,-1,91-57,91-57=24,0.0,2,_,0,with_carry-over,First_Digit_Incorrect,0,XX-XX,91,57,24,female,22
10,11,99,n,1,32-15,32-15=13,0.0,2,1,817,with_carry-over,Second_Digit_Incorrect,1,XX-XX,32,15,13,female,22
10,10,100,c,-1,35-17,35-17=28,0.0,2,0,1405,with_carry-over,First_Digit_Incorrect,0,XX-XX,35,17,28,female,22
10,2,102,n,1,9*24,9*24=215,0.0,3,8,1429,na,Incorrect_Unrelated,1,X*XX,9,24,215,female,22
10,31,103,n,1,963-52,963-52=919,0.0,2,1,1098,without_carry-over,Last_Digit_Incorrect,1,XXX-XX,963,52,919,female,22
10,13,108,c,-1,98-64,98-64=24,0.0,2,2,1594,without_carry-over,First_Digit_Incorrect,0,XX-XX,98,64,24,female,22
10,26,109,c,-1,784-431,784-431=343,0.0,3,3,1755,without_carry-over,Middle_Digit_Incorrect,0,XXX-XXX,784,431,343,female,22
10,7,110,n,1,75*6,75*6=525,0.0,2,2,1812,na,Incorrect_Related,1,XX*X,75,6,525,female,22
10,23,111,n,1,452-369,452-369=87,0.0,3,8,2163,with_carry-over,Second_Digit_Incorrect,1,XXX-XXX,452,369,87,female,22
10,28,112,n,1,169-85,169-85=94,0.0,3,2,1868,with_carry-over,First_Digit_Incorrect,1,XXX-XX,169,85,94,female,22
10,5,113,n,1,14*14,14*14=195,0.0,3,2,1106,na,Incorrect_Unrelated,1,XX*XX,14,14,195,female,22
10,23,115,n,1,254-188,254-188=64,0.0,3,3,2165,with_carry-over,Second_Digit_Incorrect,1,XXX-XXX,254,188,64,female,22
10,2,119,n,1,7*21,7*21=146,0.0,2,1,1107,na,Incorrect_Unrelated,1,X*XX,7,21,146,female,22
10,31,120,n,1,465-22,465-22=447,0.0,2,1,2851,without_carry-over,Last_Digit_Incorrect,1,XXX-XX,465,22,447,female,22
10,22,121,c,-1,537-444,537-444=83,0.0,2,3,2387,with_carry-over,First_Digit_Incorrect,0,XXX-XXX,537,444,83,female,22
10,28,122,n,1,105-22,105-22=93,0.0,2,1,1759,with_carry-over,First_Digit_Incorrect,1,XXX-XX,105,22,93,female,22
10,25,124,n,1,339-111,339-111=222,0.0,2,1,1778,without_carry-over,Last_Digit_Incorrect,1,XXX-XXX,339,111,222,female,22
10,25,125,n,1,576-225,576-225=359,0.0,2,1,2528,without_carry-over,Last_Digit_Incorrect,1,XXX-XXX,576,225,359,female,22
10,17,128,n,1,31-9,31-9=28,0.0,2,1,1363,with_carry-over,Second_Digit_Incorrect,1,XX-X,31,9,28,female,22
10,10,129,c,-1,46-27,46-27=29,0.0,2,0,1935,with_carry-over,First_Digit_Incorrect,0,XX-XX,46,27,29,female,22
10,19,131,n,1,85-2,85-2=73,0.0,1,1,868,without_carry-over,First_Digit_Incorrect,1,XX-X,85,2,73,female,22
10,19,132,c,-1,59-1,59-1=48,0.0,1,0,1095,without_carry-over,First_Digit_Incorrect,0,XX-X,59,1,48,female,22
10,7,133,n,1,16*4,16*4=80,0.0,2,1,1327,na,Incorrect_Related,1,XX*X,16,4,80,female,22
10,2,134,n,1,2*98,2*98=197,0.0,2,1,1478,na,Incorrect_Unrelated,1,X*XX,2,98,197,female,22
10,2,135,n,1,8*31,8*31=247,0.0,2,1,736,na,Incorrect_Unrelated,1,X*XX,8,31,247,female,22
10,13,140,n,1,64-12,64-12=42,0.0,1,1,1427,without_carry-over,First_Digit_Incorrect,1,XX-XX,64,12,42,female,22
10,14,142,n,1,72-51,72-51=29,0.0,2,1,1024,without_carry-over,Second_Digit_Incorrect,1,XX-XX,72,51,29,female,22
10,20,143,n,1,77-5,77-5=71,0.0,1,1,882,without_carry-over,Second_Digit_Incorrect,1,XX-X,77,5,71,female,22
10,2,144,n,1,5*29,5*29=146,0.0,2,1,843,na,Incorrect_Unrelated,1,X*XX,5,29,146,female,22
10,25,145,n,1,677-160,677-160=513,0.0,2,1,884,without_carry-over,Last_Digit_Incorrect,1,XXX-XXX,677,160,513,female,22
10,17,146,n,1,71-9,71-9=68,0.0,2,1,952,with_carry-over,Second_Digit_Incorrect,1,XX-X,71,9,68,female,22
10,5,147,n,1,25*11,25*11=274,0.0,2,1,1124,na,Incorrect_Unrelated,1,XX*XX,25,11,274,female,22
10,17,148,n,1,66-7,66-7=51,0.0,2,1,1058,with_carry-over,Second_Digit_Incorrect,1,XX-X,66,7,51,female,22
10,23,151,n,1,652-559,652-559=97,0.0,2,1,961,with_carry-over,Second_Digit_Incorrect,1,XXX-XXX,652,559,97,female,22
10,29,152,n,1,172-99,172-99=77,0.0,2,1,1310,with_carry-over,Second_Digit_Incorrect,1,XXX-XX,172,99,77,female,22
10,23,153,n,1,326-253,326-253=77,0.0,2,1,1058,with_carry-over,Second_Digit_Incorrect,1,XXX-XXX,326,253,77,female,22
10,1,154,n,1,6*16,6*16=102,0.0,2,1,1624,na,Incorrect_Related,1,X*XX,6,16,102,female,22
10,31,155,n,1,398-66,398-66=338,0.0,2,1,1447,without_carry-over,Last_Digit_Incorrect,1,XXX-XX,398,66,338,female,22
10,4,156,n,1,11*11,11*11=132,0.0,2,1,1022,na,Incorrect_Related,1,XX*XX,11,11,132,female,22
10,26,158,c,-1,479-105,479-105=384,0.0,2,3,1653,without_carry-over,Middle_Digit_Incorrect,0,XXX-XXX,479,105,384,female,22
10,16,159,c,-1,51-9,51-9=32,0.0,2,0,1574,with_carry-over,First_Digit_Incorrect,0,XX-X,51,9,32,female,22
10,17,160,n,1,51-9,51-9=48,0.0,2,1,1454,with_carry-over,Second_Digit_Incorrect,1,XX-X,51,9,48,female,22
10,23,161,n,1,537-444,537-444=97,0.0,2,1,1142,with_carry-over,Second_Digit_Incorrect,1,XXX-XXX,537,444,97,female,22
10,7,162,n,1,61*8,61*8=549,0.0,2,1,939,na,Incorrect_Related,1,XX*X,61,8,549,female,22
10,7,163,n,1,24*5,24*5=96,0.0,2,1,1153,na,Incorrect_Related,1,XX*X,24,5,96,female,22
10,13,164,n,1,82-71,82-71=21,0.0,2,1,1176,without_carry-over,First_Digit_Incorrect,1,XX-XX,82,71,21,female,22
10,19,165,n,1,77-5,77-5=62,0.0,1,1,1330,without_carry-over,First_Digit_Incorrect,1,XX-X,77,5,62,female,22
10,26,167,c,-1,576-225,576-225=341,0.0,2,3,1543,without_carry-over,Middle_Digit_Incorrect,0,XXX-XXX,576,225,341,female,22
10,28,169,c,-1,148-56,148-56=82,0.0,2,3,1506,with_carry-over,First_Digit_Incorrect,0,XXX-XX,148,56,82,female,22
10,16,170,n,1,66-7,66-7=49,0.0,1,1,818,with_carry-over,First_Digit_Incorrect,1,XX-X,66,7,49,female,22
10,10,171,n,1,75-26,75-26=59,0.0,2,1,2428,with_carry-over,First_Digit_Incorrect,1,XX-XX,75,26,59,female,22
10,19,173,n,1,67-3,67-3=54,0.0,1,1,668,without_carry-over,First_Digit_Incorrect,1,XX-X,67,3,54,female,22
10,7,174,n,1,10*9,10*9=80,0.0,1,1,899,na,Incorrect_Related,1,XX*X,10,9,80,female,22
10,1,177,n,1,9*24,9*24=207,0.0,2,2,2273,na,Incorrect_Related,1,X*XX,9,24,207,female,22
10,14,179,n,1,58-16,58-16=48,0.0,2,1,1721,without_carry-over,Second_Digit_Incorrect,1,XX-XX,58,16,48,female,22
10,20,180,n,1,38-2,38-2=34,0.0,1,1,1390,without_carry-over,Second_Digit_Incorrect,1,XX-X,38,2,34,female,22
10,32,181,n,1,663-22,663-22=631,0.0,2,1,1803,without_carry-over,Middle_Digit_Incorrect,1,XXX-XX,663,22,631,female,22
10,23,182,n,1,263-177,263-177=84,0.0,2,1,1253,with_carry-over,Second_Digit_Incorrect,1,XXX-XXX,263,177,84,female,22
10,2,183,n,1,6*16,6*16=97,0.0,2,1,1119,na,Incorrect_Unrelated,1,X*XX,6,16,97,female,22
10,29,184,n,1,156-63,156-63=97,0.0,2,1,2092,with_carry-over,Second_Digit_Incorrect,1,XXX-XX,156,63,97,female,22
10,4,185,n,1,25*18,25*18=475,0.0,2,1,1538,na,Incorrect_Related,1,XX*XX,25,18,475,female,22
10,7,186,n,1,55*3,55*3=220,0.0,2,1,1502,na,Incorrect_Related,1,XX*X,55,3,220,female,22
10,32,187,c,-1,774-53,774-53=711,0.0,2,3,1554,without_carry-over,Middle_Digit_Incorrect,0,XXX-XX,774,53,711,female,22
10,1,188,n,1,5*29,5*29=150,0.0,2,2,1346,na,Incorrect_Related,1,X*XX,5,29,150,female,22
10,4,189,n,1,14*14,14*14=182,0.0,2,2,1855,na,Incorrect_Related,1,XX*XX,14,14,182,female,22
10,28,190,c,-1,156-63,156-63=83,0.0,2,3,2236,with_carry-over,First_Digit_Incorrect,0,XXX-XX,156,63,83,female,22
10,19,192,n,1,99-8,99-8=81,0.0,1,1,846,without_carry-over,First_Digit_Incorrect,1,XX-X,99,8,81,female,22
10,22,194,c,-1,652-559,652-559=83,0.0,2,3,1794,with_carry-over,First_Digit_Incorrect,0,XXX-XXX,652,559,83,female,22
10,14,195,n,1,39-18,39-18=29,0.0,1,2,1082,without_carry-over,Second_Digit_Incorrect,1,XX-XX,39,18,29,female,22
10,11,196,c,-1,52-16,52-16=34,0.0,2,2,2195,with_carry-over,Second_Digit_Incorrect,0,XX-XX,52,16,34,female,22
10,20,197,n,1,85-2,85-2=82,0.0,1,1,1007,without_carry-over,Second_Digit_Incorrect,1,XX-X,85,2,82,female,22
10,26,198,c,-1,339-111,339-111=218,0.0,2,2,1591,without_carry-over,Middle_Digit_Incorrect,0,XXX-XXX,339,111,218,female,22
10,32,200,n,1,465-22,465-22=453,0.0,2,1,1326,without_carry-over,Middle_Digit_Incorrect,1,XXX-XX,465,22,453,female,22
10,25,201,n,1,989-577,989-577=418,0.0,2,1,831,without_carry-over,Last_Digit_Incorrect,1,XXX-XXX,989,577,418,female,22
10,20,202,n,1,99-8,99-8=92,0.0,1,1,801,without_carry-over,Second_Digit_Incorrect,1,XX-X,99,8,92,female,22
10,11,205,c,-1,66-29,66-29=33,0.0,2,3,1885,with_carry-over,Second_Digit_Incorrect,0,XX-XX,66,29,33,female,22
10,11,207,n,1,75-26,75-26=41,0.0,2,1,1760,with_carry-over,Second_Digit_Incorrect,1,XX-XX,75,26,41,female,22
10,11,209,n,1,46-27,46-27=11,0.0,2,1,861,with_carry-over,Second_Digit_Incorrect,1,XX-XX,46,27,11,female,22
10,17,210,n,1,42-5,42-5=33,0.0,2,1,883,with_carry-over,Second_Digit_Incorrect,1,XX-X,42,5,33,female,22
10,7,211,n,1,15*7,15*7=90,0.0,2,1,1161,na,Incorrect_Related,1,XX*X,15,7,90,female,22
10,8,212,n,1,87*2,87*2=175,0.0,2,1,1275,na,Incorrect_Unrelated,1,XX*X,87,2,175,female,22
10,10,215,c,-1,66-29,66-29=27,0.0,2,3,2150,with_carry-over,First_Digit_Incorrect,0,XX-XX,66,29,27,female,22
10,22,217,n,1,788-699,788-699=79,0.0,2,8,2088,with_carry-over,First_Digit_Incorrect,1,XXX-XXX,788,699,79,female,22
10,28,218,c,-1,119-52,119-52=77,0.0,2,8,1247,with_carry-over,First_Digit_Incorrect,0,XXX-XX,119,52,77,female,22
10,23,220,c,-1,882-795,882-795=83,0.0,2,0,2465,with_carry-over,Second_Digit_Incorrect,0,XXX-XXX,882,795,83,female,22
10,16,224,n,1,31-9,31-9=12,0.0,2,1,1423,with_carry-over,First_Digit_Incorrect,1,XX-X,31,9,12,female,22
10,13,225,n,1,39-18,39-18=11,0.0,2,1,1226,without_carry-over,First_Digit_Incorrect,1,XX-XX,39,18,11,female,22
10,4,226,n,1,15*31,15*31=480,0.0,2,1,995,na,Incorrect_Related,1,XX*XX,15,31,480,female,22
10,1,227,n,1,2*98,2*98=198,0.0,2,1,1621,na,Incorrect_Related,1,X*XX,2,98,198,female,22
10,1,229,n,1,4*56,4*56=220,0.0,2,1,2000,na,Incorrect_Related,1,X*XX,4,56,220,female,22
10,14,230,n,1,64-12,64-12=58,0.0,2,1,1934,without_carry-over,Second_Digit_Incorrect,1,XX-XX,64,12,58,female,22
10,22,231,n,1,263-177,263-177=96,0.0,2,8,1958,with_carry-over,First_Digit_Incorrect,1,XXX-XXX,263,177,96,female,22
10,7,233,n,1,87*2,87*2=261,0.0,2,1,1663,na,Incorrect_Related,1,XX*X,87,2,261,female,22
10,8,234,n,1,15*7,15*7=104,0.0,2,1,850,na,Incorrect_Unrelated,1,XX*X,15,7,104,female,22
10,5,235,n,1,15*31,15*31=466,0.0,2,1,1761,na,Incorrect_Unrelated,1,XX*XX,15,31,466,female,22
10,32,237,c,-1,279-45,279-45=224,0.0,2,2,1056,without_carry-over,Middle_Digit_Incorrect,0,XXX-XX,279,45,224,female,22
10,32,238,c,-1,398-66,398-66=322,0.0,2,8,2253,without_carry-over,Middle_Digit_Incorrect,0,XXX-XX,398,66,322,female,22
10,22,239,c,-1,254-188,254-188=76,0.0,3,8,2199,with_carry-over,First_Digit_Incorrect,0,XXX-XXX,254,188,76,female,22
10,10,244,n,1,52-16,52-16=26,0.0,2,1,847,with_carry-over,First_Digit_Incorrect,1,XX-XX,52,16,26,female,22
10,31,245,n,1,279-45,279-45=236,0.0,2,1,2068,without_carry-over,Last_Digit_Incorrect,1,XXX-XX,279,45,236,female,22
10,25,246,n,1,495-244,495-244=259,0.0,2,1,1026,without_carry-over,Last_Digit_Incorrect,1,XXX-XXX,495,244,259,female,22
10,22,247,n,1,452-369,452-369=93,0.0,2,8,2422,with_carry-over,First_Digit_Incorrect,1,XXX-XXX,452,369,93,female,22
10,16,249,n,1,71-9,71-9=52,0.0,2,1,899,with_carry-over,First_Digit_Incorrect,1,XX-X,71,9,52,female,22
10,11,251,n,1,35-17,35-17=12,0.0,2,1,664,with_carry-over,Second_Digit_Incorrect,1,XX-XX,35,17,12,female,22
10,4,253,n,1,13*13,13*13=156,0.0,3,3,2025,na,Incorrect_Related,1,XX*XX,13,13,156,female,22
10,32,254,n,1,963-52,963-52=921,0.0,2,1,1950,without_carry-over,Middle_Digit_Incorrect,1,XXX-XX,963,52,921,female,22
10,4,255,n,1,12*12,12*12=132,0.0,2,2,1256,na,Incorrect_Related,1,XX*XX,12,12,132,female,22
10,22,256,n,1,882-795,882-795=77,0.0,3,8,1343,with_carry-over,First_Digit_Incorrect,1,XXX-XXX,882,795,77,female,22
10,17,258,n,1,88-9,88-9=71,0.0,1,1,896,with_carry-over,Second_Digit_Incorrect,1,XX-X,88,9,71,female,22
10,14,261,n,1,46-12,46-12=36,0.0,1,1,1578,without_carry-over,Second_Digit_Incorrect,1,XX-XX,46,12,36,female,22
10,2,262,n,1,3*46,3*46=139,0.0,2,1,2074,na,Incorrect_Unrelated,1,X*XX,3,46,139,female,22
10,26,263,c,-1,495-244,495-244=261,0.0,2,3,2213,without_carry-over,Middle_Digit_Incorrect,0,XXX-XXX,495,244,261,female,22
11,16,0,n,-1,51-9,51-9=32,1.0,8,_,0,with_carry-over,First_Digit_Incorrect,0,XX-X,51,9,32,female,19
11,4,1,n,-1,11*11,11*11=132,1.0,8,9,1048,na,Incorrect_Related,0,XX*XX,11,11,132,female,19
11,13,2,n,-1,79-68,79-68=21,1.0,8,3,1270,without_carry-over,First_Digit_Incorrect,0,XX-XX,79,68,21,female,19
11,19,3,n,-1,58-6,58-6=42,1.0,8,9,1504,without_carry-over,First_Digit_Incorrect,0,XX-X,58,6,42,female,19
11,1,6,n,-1,7*21,7*21=140,1.0,3,8,1447,na,Incorrect_Related,0,X*XX,7,21,140,female,19
11,5,7,n,-1,12*12,12*12=143,1.0,8,9,1313,na,Incorrect_Unrelated,0,XX*XX,12,12,143,female,19
11,22,8,n,-1,652-559,652-559=83,1.0,8,8,1241,with_carry-over,First_Digit_Incorrect,0,XXX-XXX,652,559,83,female,19
11,11,12,n,-1,32-15,32-15=13,1.0,3,9,2160,with_carry-over,Second_Digit_Incorrect,0,XX-XX,32,15,13,female,19
11,19,14,n,-1,77-5,77-5=62,1.0,9,0,1498,without_carry-over,First_Digit_Incorrect,0,XX-X,77,5,62,female,19
11,14,17,c,1,64-12,64-12=58,1.0,8,1,1949,without_carry-over,Second_Digit_Incorrect,1,XX-XX,64,12,58,female,19
11,31,18,n,-1,963-52,963-52=919,1.0,2,3,1882,without_carry-over,Last_Digit_Incorrect,0,XXX-XX,963,52,919,female,19
11,32,19,n,-1,279-45,279-45=224,1.0,3,3,2239,without_carry-over,Middle_Digit_Incorrect,0,XXX-XX,279,45,224,female,19
11,19,20,n,-1,99-8,99-8=81,1.0,8,0,1109,without_carry-over,First_Digit_Incorrect,0,XX-X,99,8,81,female,19
11,8,21,n,-1,75*6,75*6=451,1.0,3,3,1370,na,Incorrect_Unrelated,0,XX*X,75,6,451,female,19
11,16,22,n,-1,88-9,88-9=69,1.0,8,0,1714,with_carry-over,First_Digit_Incorrect,0,XX-X,88,9,69,female,19
11,28,23,n,-1,148-56,148-56=82,1.0,3,8,1692,with_carry-over,First_Digit_Incorrect,0,XXX-XX,148,56,82,female,19
11,2,24,n,-1,3*46,3*46=139,1.0,2,3,2407,na,Incorrect_Unrelated,0,X*XX,3,46,139,female,19
11,16,25,n,-1,66-7,66-7=49,1.0,8,0,1304,with_carry-over,First_Digit_Incorrect,0,XX-X,66,7,49,female,19
11,22,29,c,1,263-177,263-177=96,1.0,1,1,1281,with_carry-over,First_Digit_Incorrect,1,XXX-XXX,263,177,96,female,19
11,28,30,n,-1,169-85,169-85=94,1.0,1,1,1908,with_carry-over,First_Digit_Incorrect,0,XXX-XX,169,85,94,female,19
11,10,31,c,1,66-29,66-29=27,1.0,3,8,1887,with_carry-over,First_Digit_Incorrect,1,XX-XX,66,29,27,female,19
11,13,32,n,-1,46-12,46-12=24,1.0,8,0,1673,without_carry-over,First_Digit_Incorrect,0,XX-XX,46,12,24,female,19
11,23,34,n,-1,254-188,254-188=64,1.0,2,3,1987,with_carry-over,Second_Digit_Incorrect,0,XXX-XXX,254,188,64,female,19
11,29,35,n,-1,105-22,105-22=87,1.0,3,2,1897,with_carry-over,Second_Digit_Incorrect,0,XXX-XX,105,22,87,female,19
11,23,38,n,-1,452-369,452-369=87,1.0,1,1,1128,with_carry-over,Second_Digit_Incorrect,0,XXX-XXX,452,369,87,female,19
11,19,39,n,-1,67-3,67-3=54,1.0,8,0,1113,without_carry-over,First_Digit_Incorrect,0,XX-X,67,3,54,female,19
11,11,41,n,-1,66-29,66-29=33,1.0,2,0,2325,with_carry-over,Second_Digit_Incorrect,0,XX-XX,66,29,33,female,19
11,16,42,n,-1,42-5,42-5=27,1.0,8,0,1841,with_carry-over,First_Digit_Incorrect,0,XX-X,42,5,27,female,19
11,14,43,n,-1,72-51,72-51=29,1.0,8,0,1409,without_carry-over,Second_Digit_Incorrect,0,XX-XX,72,51,29,female,19
11,14,44,n,-1,82-71,82-71=19,1.0,8,0,1352,without_carry-over,Second_Digit_Incorrect,0,XX-XX,82,71,19,female,19
11,17,45,n,-1,71-9,71-9=68,1.0,8,0,1757,with_carry-over,Second_Digit_Incorrect,0,XX-X,71,9,68,female,19
11,26,46,n,-1,677-160,677-160=527,1.0,3,8,1842,without_carry-over,Middle_Digit_Incorrect,0,XXX-XXX,677,160,527,female,19
11,1,47,n,-1,2*98,2*98=198,1.0,8,8,2466,na,Incorrect_Related,0,X*XX,2,98,198,female,19
11,13,48,n,-1,39-18,39-18=11,1.0,8,1,2209,without_carry-over,First_Digit_Incorrect,0,XX-XX,39,18,11,female,19
11,7,49,n,-1,16*4,16*4=80,1.0,8,0,2708,na,Incorrect_Related,0,XX*X,16,4,80,female,19
11,14,50,c,1,46-12,46-12=36,1.0,8,0,2500,without_carry-over,Second_Digit_Incorrect,1,XX-XX,46,12,36,female,19
11,20,51,n,-1,45-4,45-4=42,1.0,8,0,2016,without_carry-over,Second_Digit_Incorrect,0,XX-X,45,4,42,female,19
11,23,52,n,-1,652-559,652-559=97,1.0,8,9,2672,with_carry-over,Second_Digit_Incorrect,0,XXX-XXX,652,559,97,female,19
11,32,53,n,-1,963-52,963-52=921,1.0,8,0,2989,without_carry-over,Middle_Digit_Incorrect,0,XXX-XX,963,52,921,female,19
11,10,54,n,-1,32-15,32-15=27,1.0,8,0,1615,with_carry-over,First_Digit_Incorrect,0,XX-XX,32,15,27,female,19
11,28,56,n,-1,123-66,123-66=67,1.0,8,_,0,with_carry-over,First_Digit_Incorrect,0,XXX-XX,123,66,67,female,19
11,26,57,n,-1,339-111,339-111=218,1.0,8,0,1171,without_carry-over,Middle_Digit_Incorrect,0,XXX-XXX,339,111,218,female,19
11,29,58,n,-1,172-99,172-99=77,1.0,8,0,1435,with_carry-over,Second_Digit_Incorrect,0,XXX-XX,172,99,77,female,19
11,22,59,n,-1,452-369,452-369=93,1.0,8,3,1424,with_carry-over,First_Digit_Incorrect,0,XXX-XXX,452,369,93,female,19
11,1,60,c,1,5*29,5*29=150,1.0,3,1,1371,na,Incorrect_Related,1,X*XX,5,29,150,female,19
11,23,61,n,-1,263-177,263-177=84,1.0,8,9,2250,with_carry-over,Second_Digit_Incorrect,0,XXX-XXX,263,177,84,female,19
11,22,63,n,-1,537-444,537-444=83,1.0,3,3,1626,with_carry-over,First_Digit_Incorrect,0,XXX-XXX,537,444,83,female,19
11,28,64,n,-1,172-99,172-99=83,1.0,8,3,1093,with_carry-over,First_Digit_Incorrect,0,XXX-XX,172,99,83,female,19
11,20,65,n,-1,77-5,77-5=71,1.0,8,0,1241,without_carry-over,Second_Digit_Incorrect,0,XX-X,77,5,71,female,19
11,25,66,n,-1,576-225,576-225=359,1.0,8,1,1642,without_carry-over,Last_Digit_Incorrect,0,XXX-XXX,576,225,359,female,19
11,4,68,n,-1,13*13,13*13=156,1.0,8,3,1255,na,Incorrect_Related,0,XX*XX,13,13,156,female,19
11,32,69,n,-1,663-22,663-22=631,1.0,8,0,1681,without_carry-over,Middle_Digit_Incorrect,0,XXX-XX,663,22,631,female,19
11,10,70,n,-1,35-17,35-17=28,1.0,8,1,2850,with_carry-over,First_Digit_Incorrect,0,XX-XX,35,17,28,female,19
11,22,71,n,-1,788-699,788-699=79,1.0,8,_,0,with_carry-over,First_Digit_Incorrect,0,XXX-XXX,788,699,79,female,19
11,11,72,n,-1,46-27,46-27=11,1.0,8,8,2025,with_carry-over,Second_Digit_Incorrect,0,XX-XX,46,27,11,female,19
11,25,73,c,1,495-244,495-244=259,1.0,8,8,1660,without_carry-over,Last_Digit_Incorrect,1,XXX-XXX,495,244,259,female,19
11,17,76,n,-1,66-7,66-7=51,1.0,8,0,1767,with_carry-over,Second_Digit_Incorrect,0,XX-X,66,7,51,female,19
11,17,78,n,-1,88-9,88-9=71,1.0,0,0,1811,with_carry-over,Second_Digit_Incorrect,0,XX-X,88,9,71,female,19
11,11,79,c,1,35-17,35-17=12,1.0,8,9,1884,with_carry-over,Second_Digit_Incorrect,1,XX-XX,35,17,12,female,19
11,4,80,n,-1,25*11,25*11=250,1.0,8,0,2152,na,Incorrect_Related,0,XX*XX,25,11,250,female,19
11,4,81,c,1,25*18,25*18=475,1.0,3,1,960,na,Incorrect_Related,1,XX*XX,25,18,475,female,19
11,14,83,n,-1,79-68,79-68=19,1.0,8,0,1989,without_carry-over,Second_Digit_Incorrect,0,XX-XX,79,68,19,female,19
11,17,84,n,-1,51-9,51-9=48,1.0,8,0,1837,with_carry-over,Second_Digit_Incorrect,0,XX-X,51,9,48,female,19
11,4,85,n,-1,50*21,50*21=1000,1.0,3,_,0,na,Incorrect_Related,0,XX*XX,50,21,1000,female,19
11,22,87,n,-1,254-188,254-188=76,1.0,8,3,1263,with_carry-over,First_Digit_Incorrect,0,XXX-XXX,254,188,76,female,19
11,7,89,n,-1,75*6,75*6=525,1.0,3,1,1420,na,Incorrect_Related,0,XX*X,75,6,525,female,19
11,29,92,c,1,123-66,123-66=53,1.0,8,9,1843,with_carry-over,Second_Digit_Incorrect,1,XXX-XX,123,66,53,female,19
11,8,93,n,-1,87*2,87*2=175,1.0,8,0,978,na,Incorrect_Unrelated,0,XX*X,87,2,175,female,19
11,20,94,n,-1,58-6,58-6=51,1.0,8,0,1453,without_carry-over,Second_Digit_Incorrect,0,XX-X,58,6,51,female,19
11,5,95,n,-1,50*21,50*21=1049,1.0,8,0,1102,na,Incorrect_Unrelated,0,XX*XX,50,21,1049,female,19
11,10,96,c,1,81-37,81-37=54,1.0,8,0,880,with_carry-over,First_Digit_Incorrect,1,XX-XX,81,37,54,female,19
11,32,98,c,1,465-22,465-22=453,1.0,8,1,716,without_carry-over,Middle_Digit_Incorrect,1,XXX-XX,465,22,453,female,19
11,25,99,n,-1,784-431,784-431=357,1.0,8,1,1057,without_carry-over,Last_Digit_Incorrect,0,XXX-XXX,784,431,357,female,19
11,2,100,n,-1,7*21,7*21=146,1.0,8,0,908,na,Incorrect_Unrelated,0,X*XX,7,21,146,female,19
11,29,101,n,-1,119-52,119-52=63,1.0,8,0,824,with_carry-over,Second_Digit_Incorrect,0,XXX-XX,119,52,63,female,19
11,26,106,n,-1,576-225,576-225=341,1.0,8,8,2035,without_carry-over,Middle_Digit_Incorrect,0,XXX-XXX,576,225,341,female,19
11,1,107,n,-1,3*46,3*46=141,1.0,8,0,868,na,Incorrect_Related,0,X*XX,3,46,141,female,19
11,10,109,n,-1,52-16,52-16=26,1.0,8,0,760,with_carry-over,First_Digit_Incorrect,0,XX-XX,52,16,26,female,19
11,7,110,n,-1,24*5,24*5=96,1.0,8,0,1063,na,Incorrect_Related,0,XX*X,24,5,96,female,19
11,8,112,n,-1,10*9,10*9=89,1.0,0,0,1016,na,Incorrect_Unrelated,0,XX*X,10,9,89,female,19
11,23,113,n,-1,537-444,537-444=97,1.0,8,8,1183,with_carry-over,Second_Digit_Incorrect,0,XXX-XXX,537,444,97,female,19
11,17,114,n,-1,31-9,31-9=28,1.0,0,0,951,with_carry-over,Second_Digit_Incorrect,0,XX-X,31,9,28,female,19
11,19,115,n,-1,59-1,59-1=48,1.0,0,0,837,without_carry-over,First_Digit_Incorrect,0,XX-X,59,1,48,female,19
11,14,116,n,-1,39-18,39-18=29,1.0,0,0,971,without_carry-over,Second_Digit_Incorrect,0,XX-XX,39,18,29,female,19
11,5,117,n,-1,25*18,25*18=451,1.0,9,0,1103,na,Incorrect_Unrelated,0,XX*XX,25,18,451,female,19
11,11,118,n,-1,91-57,91-57=36,1.0,9,0,1074,with_carry-over,Second_Digit_Incorrect,0,XX-XX,91,57,36,female,19
11,2,119,n,-1,5*29,5*29=146,1.0,0,0,904,na,Incorrect_Unrelated,0,X*XX,5,29,146,female,19
11,32,121,n,-1,888-62,888-62=836,1.0,8,0,936,without_carry-over,Middle_Digit_Incorrect,0,XXX-XX,888,62,836,female,19
11,26,124,n,-1,989-577,989-577=422,1.0,8,8,1178,without_carry-over,Middle_Digit_Incorrect,0,XXX-XXX,989,577,422,female,19
11,11,126,n,-1,52-16,52-16=34,1.0,0,0,765,with_carry-over,Second_Digit_Incorrect,0,XX-XX,52,16,34,female,19
11,20,127,n,-1,38-2,38-2=34,1.0,0,0,889,without_carry-over,Second_Digit_Incorrect,0,XX-X,38,2,34,female,19
11,31,128,n,-1,663-22,663-22=649,1.0,0,0,626,without_carry-over,Last_Digit_Incorrect,0,XXX-XX,663,22,649,female,19
11,13,131,n,-1,72-51,72-51=11,1.0,0,0,788,without_carry-over,First_Digit_Incorrect,0,XX-XX,72,51,11,female,19
11,8,133,n,-1,61*8,61*8=489,1.0,8,8,940,na,Incorrect_Unrelated,0,XX*X,61,8,489,female,19
11,26,135,n,-1,784-431,784-431=343,1.0,8,8,1800,without_carry-over,Middle_Digit_Incorrect,0,XXX-XXX,784,431,343,female,19
11,25,139,n,-1,888-574,888-574=316,1.0,3,8,773,without_carry-over,Last_Digit_Incorrect,0,XXX-XXX,888,574,316,female,19
11,19,140,n,-1,38-2,38-2=26,1.0,0,0,724,without_carry-over,First_Digit_Incorrect,0,XX-X,38,2,26,female,19
11,29,141,n,-1,132-55,132-55=73,1.0,8,0,1894,with_carry-over,Second_Digit_Incorrect,0,XXX-XX,132,55,73,female,19
11,7,142,n,-1,55*3,55*3=220,1.0,0,0,639,na,Incorrect_Related,0,XX*X,55,3,220,female,19
11,13,143,n,-1,58-16,58-16=32,1.0,0,0,690,without_carry-over,First_Digit_Incorrect,0,XX-XX,58,16,32,female,19
11,32,145,c,1,398-66,398-66=322,1.0,0,1,1370,without_carry-over,Middle_Digit_Incorrect,1,XXX-XX,398,66,322,female,19
11,25,146,c,1,677-160,677-160=513,1.0,8,8,2121,without_carry-over,Last_Digit_Incorrect,1,XXX-XXX,677,160,513,female,19
11,5,148,n,-1,15*31,15*31=466,1.0,9,8,0,na,Incorrect_Unrelated,0,XX*XX,15,31,466,female,19
11,1,151,n,-1,9*24,9*24=207,1.0,9,0,672,na,Incorrect_Related,0,X*XX,9,24,207,female,19
11,5,153,n,-1,13*13,13*13=168,1.0,0,0,902,na,Incorrect_Unrelated,0,XX*XX,13,13,168,female,19
11,19,154,n,-1,45-4,45-4=31,1.0,0,0,859,without_carry-over,First_Digit_Incorrect,0,XX-X,45,4,31,female,19
11,2,155,n,-1,8*31,8*31=247,1.0,9,0,946,na,Incorrect_Unrelated,0,X*XX,8,31,247,female,19
11,8,156,n,-1,16*4,16*4=65,1.0,0,0,736,na,Incorrect_Unrelated,0,XX*X,16,4,65,female,19
11,17,159,c,1,94-8,94-8=84,1.0,8,3,1324,with_carry-over,Second_Digit_Incorrect,1,XX-X,94,8,84,female,19
11,2,160,n,-1,9*24,9*24=215,1.0,8,0,661,na,Incorrect_Unrelated,0,X*XX,9,24,215,female,19
11,4,162,n,-1,15*31,15*31=480,1.0,0,0,916,na,Incorrect_Related,0,XX*XX,15,31,480,female,19
11,14,163,n,-1,58-16,58-16=48,1.0,0,0,723,without_carry-over,Second_Digit_Incorrect,0,XX-XX,58,16,48,female,19
11,1,164,n,-1,4*56,4*56=220,1.0,0,0,744,na,Incorrect_Related,0,X*XX,4,56,220,female,19
11,23,165,n,-1,326-253,326-253=77,1.0,9,8,970,with_carry-over,Second_Digit_Incorrect,0,XXX-XXX,326,253,77,female,19
11,20,166,n,-1,59-1,59-1=52,1.0,0,0,576,without_carry-over,Second_Digit_Incorrect,0,XX-X,59,1,52,female,19
11,31,169,n,-1,888-62,888-62=824,1.0,9,0,1643,without_carry-over,Last_Digit_Incorrect,0,XXX-XX,888,62,824,female,19
11,4,170,n,-1,14*14,14*14=182,1.0,0,0,782,na,Incorrect_Related,0,XX*XX,14,14,182,female,19
11,2,171,n,-1,2*98,2*98=197,1.0,0,0,874,na,Incorrect_Unrelated,0,X*XX,2,98,197,female,19
11,10,172,n,-1,91-57,91-57=24,1.0,9,0,779,with_carry-over,First_Digit_Incorrect,0,XX-XX,91,57,24,female,19
11,29,173,n,-1,156-63,156-63=97,1.0,9,0,1276,with_carry-over,Second_Digit_Incorrect,0,XXX-XX,156,63,97,female,19
11,4,175,n,-1,12*12,12*12=132,1.0,0,0,641,na,Incorrect_Related,0,XX*XX,12,12,132,female,19
11,32,176,n,-1,599-63,599-63=553,1.0,0,0,978,without_carry-over,Middle_Digit_Incorrect,0,XXX-XX,599,63,553,female,19
11,19,177,n,-1,85-2,85-2=73,1.0,0,0,966,without_carry-over,First_Digit_Incorrect,0,XX-X,85,2,73,female,19
11,5,179,n,-1,14*14,14*14=195,1.0,0,0,896,na,Incorrect_Unrelated,0,XX*XX,14,14,195,female,19
11,23,180,n,-1,882-795,882-795=83,1.0,8,8,1541,with_carry-over,Second_Digit_Incorrect,0,XXX-XXX,882,795,83,female,19
11,7,181,n,-1,61*8,61*8=549,1.0,8,0,1156,na,Incorrect_Related,0,XX*X,61,8,549,female,19
11,29,183,c,1,169-85,169-85=86,1.0,8,1,2957,with_carry-over,Second_Digit_Incorrect,1,XXX-XX,169,85,86,female,19
11,14,184,n,-1,98-64,98-64=36,1.0,8,0,676,without_carry-over,Second_Digit_Incorrect,0,XX-XX,98,64,36,female,19
11,29,185,n,-1,148-56,148-56=98,1.0,3,3,1252,with_carry-over,Second_Digit_Incorrect,0,XXX-XX,148,56,98,female,19
11,22,186,n,-1,326-253,326-253=83,1.0,8,8,666,with_carry-over,First_Digit_Incorrect,0,XXX-XXX,326,253,83,female,19
11,20,187,n,-1,67-3,67-3=66,1.0,0,0,1755,without_carry-over,Second_Digit_Incorrect,0,XX-X,67,3,66,female,19
11,5,188,n,-1,25*11,25*11=274,1.0,0,0,827,na,Incorrect_Unrelated,0,XX*XX,25,11,274,female,19
11,32,193,n,-1,774-53,774-53=711,1.0,8,8,1760,without_carry-over,Middle_Digit_Incorrect,0,XXX-XX,774,53,711,female,19
11,17,194,n,-1,45-9,45-9=34,1.0,0,0,1070,with_carry-over,Second_Digit_Incorrect,0,XX-X,45,9,34,female,19
11,7,195,n,-1,87*2,87*2=261,1.0,0,0,749,na,Incorrect_Related,0,XX*X,87,2,261,female,19
11,16,196,n,-1,31-9,31-9=12,1.0,0,0,1360,with_carry-over,First_Digit_Incorrect,0,XX-X,31,9,12,female,19
11,13,197,n,-1,82-71,82-71=21,1.0,0,0,1485,without_carry-over,First_Digit_Incorrect,0,XX-XX,82,71,21,female,19
11,17,201,n,-1,42-5,42-5=33,1.0,8,0,726,with_carry-over,Second_Digit_Incorrect,0,XX-X,42,5,33,female,19
11,26,202,c,1,495-244,495-244=261,1.0,8,0,2386,without_carry-over,Middle_Digit_Incorrect,1,XXX-XXX,495,244,261,female,19
11,25,204,n,-1,339-111,339-111=222,1.0,0,0,933,without_carry-over,Last_Digit_Incorrect,0,XXX-XXX,339,111,222,female,19
11,1,206,n,-1,6*16,6*16=102,1.0,8,3,1466,na,Incorrect_Related,0,X*XX,6,16,102,female,19
11,25,207,n,-1,479-105,479-105=376,1.0,8,9,1784,without_carry-over,Last_Digit_Incorrect,0,XXX-XXX,479,105,376,female,19
11,28,209,n,-1,156-63,156-63=83,1.0,8,8,1661,with_carry-over,First_Digit_Incorrect,0,XXX-XX,156,63,83,female,19
11,16,212,n,-1,94-8,94-8=76,1.0,0,0,1341,with_carry-over,First_Digit_Incorrect,0,XX-X,94,8,76,female,19
11,10,219,n,-1,75-26,75-26=59,1.0,8,0,1619,with_carry-over,First_Digit_Incorrect,0,XX-XX,75,26,59,female,19
11,8,220,n,-1,24*5,24*5=119,1.0,0,9,0,na,Incorrect_Unrelated,0,XX*X,24,5,119,female,19
11,2,221,n,-1,4*56,4*56=223,1.0,8,8,1777,na,Incorrect_Unrelated,0,X*XX,4,56,223,female,19
11,8,223,n,-1,55*3,55*3=166,1.0,0,0,808,na,Incorrect_Unrelated,0,XX*X,55,3,166,female,19
11,16,224,c,1,45-9,45-9=26,1.0,0,0,1540,with_carry-over,First_Digit_Incorrect,1,XX-X,45,9,26,female,19
11,13,225,n,-1,64-12,64-12=42,1.0,8,3,262,without_carry-over,First_Digit_Incorrect,0,XX-XX,64,12,42,female,19
11,25,226,n,-1,989-577,989-577=418,1.0,8,3,845,without_carry-over,Last_Digit_Incorrect,0,XXX-XXX,989,577,418,female,19
11,16,227,n,-1,71-9,71-9=52,1.0,8,8,763,with_carry-over,First_Digit_Incorrect,0,XX-X,71,9,52,female,19
11,11,228,c,1,75-26,75-26=41,1.0,3,9,902,with_carry-over,Second_Digit_Incorrect,1,XX-XX,75,26,41,female,19
11,11,230,c,1,81-37,81-37=46,1.0,8,8,1002,with_carry-over,Second_Digit_Incorrect,1,XX-XX,81,37,46,female,19
11,22,231,n,-1,882-795,882-795=77,1.0,2,8,379,with_carry-over,First_Digit_Incorrect,0,XXX-XXX,882,795,77,female,19
11,5,232,c,1,11*11,11*11=122,1.0,0,0,1141,na,Incorrect_Unrelated,1,XX*XX,11,11,122,female,19
11,2,233,c,1,6*16,6*16=97,1.0,8,8,642,na,Incorrect_Unrelated,1,X*XX,6,16,97,female,19
11,23,235,n,-1,788-699,788-699=81,1.0,8,3,310,with_carry-over,Second_Digit_Incorrect,0,XXX-XXX,788,699,81,female,19
11,26,236,c,1,888-574,888-574=304,1.0,8,8,351,without_carry-over,Middle_Digit_Incorrect,1,XXX-XXX,888,574,304,female,19
11,7,237,n,-1,10*9,10*9=80,1.0,0,0,952,na,Incorrect_Related,0,XX*X,10,9,80,female,19
11,31,238,n,-1,774-53,774-53=729,1.0,8,8,483,without_carry-over,Last_Digit_Incorrect,0,XXX-XX,774,53,729,female,19
11,13,239,n,-1,98-64,98-64=24,1.0,8,3,1102,without_carry-over,First_Digit_Incorrect,0,XX-XX,98,64,24,female,19
11,10,241,n,-1,46-27,46-27=29,1.0,8,8,378,with_carry-over,First_Digit_Incorrect,0,XX-XX,46,27,29,female,19
11,7,242,n,-1,15*7,15*7=90,1.0,8,3,288,na,Incorrect_Related,0,XX*X,15,7,90,female,19
11,1,243,n,-1,8*31,8*31=240,1.0,8,8,281,na,Incorrect_Related,0,X*XX,8,31,240,female,19
11,31,244,n,-1,398-66,398-66=338,1.0,8,8,68,without_carry-over,Last_Digit_Incorrect,0,XXX-XX,398,66,338,female,19
11,31,245,c,1,465-22,465-22=447,1.0,0,1,1186,without_carry-over,Last_Digit_Incorrect,1,XXX-XX,465,22,447,female,19
11,8,247,n,-1,15*7,15*7=104,1.0,8,8,236,na,Incorrect_Unrelated,0,XX*X,15,7,104,female,19
11,31,248,c,1,279-45,279-45=236,1.0,8,8,154,without_carry-over,Last_Digit_Incorrect,1,XXX-XX,279,45,236,female,19
11,28,250,n,-1,119-52,119-52=77,1.0,8,8,86,with_carry-over,First_Digit_Incorrect,0,XXX-XX,119,52,77,female,19
11,20,254,n,-1,99-8,99-8=92,1.0,0,0,790,without_carry-over,Second_Digit_Incorrect,0,XX-X,99,8,92,female,19
11,26,256,n,-1,479-105,479-105=384,1.0,8,8,8,without_carry-over,Middle_Digit_Incorrect,0,XXX-XXX,479,105,384,female,19
11,28,257,n,-1,132-55,132-55=87,1.0,8,8,174,with_carry-over,First_Digit_Incorrect,0,XXX-XX,132,55,87,female,19
11,28,259,n,-1,105-22,105-22=93,1.0,8,8,33,with_carry-over,First_Digit_Incorrect,0,XXX-XX,105,22,93,female,19
11,31,260,n,-1,599-63,599-63=567,1.0,8,8,66,without_carry-over,Last_Digit_Incorrect,0,XXX-XX,599,63,567,female,19
11,20,262,n,-1,85-2,85-2=82,1.0,0,0,1829,without_carry-over,Second_Digit_Incorrect,0,XX-X,85,2,82,female,19
12,29,0,n,1,148-56,148-56=98,0.0,3,2,1654,with_carry-over,Second_Digit_Incorrect,1,XXX-XX,148,56,98,male,31
12,7,1,n,1,55*3,55*3=220,0.0,2,1,1426,na,Incorrect_Related,1,XX*X,55,3,220,male,31
12,32,2,n,1,888-62,888-62=836,0.0,2,3,1570,without_carry-over,Middle_Digit_Incorrect,1,XXX-XX,888,62,836,male,31
12,13,5,n,1,46-12,46-12=24,0.0,1,1,1675,without_carry-over,First_Digit_Incorrect,1,XX-XX,46,12,24,male,31
12,14,8,c,-1,98-64,98-64=36,0.0,1,3,1903,without_carry-over,Second_Digit_Incorrect,0,XX-XX,98,64,36,male,31
12,17,12,n,1,31-9,31-9=28,0.0,2,1,1954,with_carry-over,Second_Digit_Incorrect,1,XX-X,31,9,28,male,31
12,16,13,n,1,45-9,45-9=26,0.0,2,1,1769,with_carry-over,First_Digit_Incorrect,1,XX-X,45,9,26,male,31
12,20,14,n,1,77-5,77-5=71,0.0,1,1,1440,without_carry-over,Second_Digit_Incorrect,1,XX-X,77,5,71,male,31
12,25,15,n,1,339-111,339-111=222,0.0,2,1,2590,without_carry-over,Last_Digit_Incorrect,1,XXX-XXX,339,111,222,male,31
12,5,19,c,-1,25*18,25*18=451,0.0,3,_,0,na,Incorrect_Unrelated,0,XX*XX,25,18,451,male,31
12,28,21,c,-1,172-99,172-99=83,0.0,8,3,2460,with_carry-over,First_Digit_Incorrect,0,XXX-XX,172,99,83,male,31
12,19,22,n,1,45-4,45-4=31,0.0,1,1,1524,without_carry-over,First_Digit_Incorrect,1,XX-X,45,4,31,male,31
12,10,25,n,1,66-29,66-29=27,0.0,3,9,2150,with_carry-over,First_Digit_Incorrect,1,XX-XX,66,29,27,male,31
12,5,26,c,-1,50*21,50*21=1049,0.0,9,_,0,na,Incorrect_Unrelated,0,XX*XX,50,21,1049,male,31
12,28,28,c,-1,123-66,123-66=67,0.0,8,1,2073,with_carry-over,First_Digit_Incorrect,0,XXX-XX,123,66,67,male,31
12,8,30,n,1,75*6,75*6=451,0.0,8,9,2084,na,Incorrect_Unrelated,1,XX*X,75,6,451,male,31
12,17,33,n,1,94-8,94-8=84,0.0,2,1,2540,with_carry-over,Second_Digit_Incorrect,1,XX-X,94,8,84,male,31
12,2,34,n,1,5*29,5*29=146,0.0,3,1,2934,na,Incorrect_Unrelated,1,X*XX,5,29,146,male,31
12,2,35,c,-1,7*21,7*21=146,0.0,3,_,0,na,Incorrect_Unrelated,0,X*XX,7,21,146,male,31
12,20,36,n,1,59-1,59-1=52,0.0,1,1,1390,without_carry-over,Second_Digit_Incorrect,1,XX-X,59,1,52,male,31
12,17,37,c,-1,45-9,45-9=34,0.0,3,1,2359,with_carry-over,Second_Digit_Incorrect,0,XX-X,45,9,34,male,31
12,10,38,n,1,52-16,52-16=26,0.0,3,2,1778,with_carry-over,First_Digit_Incorrect,1,XX-XX,52,16,26,male,31
12,25,42,n,1,989-577,989-577=418,0.0,2,9,2172,without_carry-over,Last_Digit_Incorrect,1,XXX-XXX,989,577,418,male,31
12,5,44,n,1,15*31,15*31=466,0.0,9,8,2016,na,Incorrect_Unrelated,1,XX*XX,15,31,466,male,31
12,16,45,c,-1,94-8,94-8=76,0.0,2,1,1809,with_carry-over,First_Digit_Incorrect,0,XX-X,94,8,76,male,31
12,16,46,n,1,66-7,66-7=49,0.0,1,1,1210,with_carry-over,First_Digit_Incorrect,1,XX-X,66,7,49,male,31
12,7,47,c,-1,16*4,16*4=80,0.0,3,0,2308,na,Incorrect_Related,0,XX*X,16,4,80,male,31
12,2,48,n,1,9*24,9*24=215,0.0,8,1,2005,na,Incorrect_Unrelated,1,X*XX,9,24,215,male,31
12,29,51,c,-1,172-99,172-99=77,0.0,8,_,0,with_carry-over,Second_Digit_Incorrect,0,XXX-XX,172,99,77,male,31
12,14,52,n,1,82-71,82-71=19,0.0,3,1,1886,without_carry-over,Second_Digit_Incorrect,1,XX-XX,82,71,19,male,31
12,10,53,n,1,35-17,35-17=28,0.0,3,1,2318,with_carry-over,First_Digit_Incorrect,1,XX-XX,35,17,28,male,31
12,2,54,n,1,2*98,2*98=197,0.0,3,1,1948,na,Incorrect_Unrelated,1,X*XX,2,98,197,male,31
12,31,55,n,1,963-52,963-52=919,0.0,3,9,2865,without_carry-over,Last_Digit_Incorrect,1,XXX-XX,963,52,919,male,31
12,32,56,n,1,398-66,398-66=322,0.0,3,3,2444,without_carry-over,Middle_Digit_Incorrect,1,XXX-XX,398,66,322,male,31
12,14,57,n,1,79-68,79-68=19,0.0,3,1,2318,without_carry-over,Second_Digit_Incorrect,1,XX-XX,79,68,19,male,31
12,23,58,n,1,452-369,452-369=87,0.0,2,3,2218,with_carry-over,Second_Digit_Incorrect,1,XXX-XXX,452,369,87,male,31
12,31,59,c,-1,465-22,465-22=447,0.0,3,1,2047,without_carry-over,Last_Digit_Incorrect,0,XXX-XX,465,22,447,male,31
12,4,60,n,1,14*14,14*14=182,0.0,8,9,2129,na,Incorrect_Related,1,XX*XX,14,14,182,male,31
12,17,61,n,1,42-5,42-5=33,0.0,1,1,2199,with_carry-over,Second_Digit_Incorrect,1,XX-X,42,5,33,male,31
12,13,62,n,1,82-71,82-71=21,0.0,9,1,1977,without_carry-over,First_Digit_Incorrect,1,XX-XX,82,71,21,male,31
12,8,63,c,-1,87*2,87*2=175,0.0,2,3,2458,na,Incorrect_Unrelated,0,XX*X,87,2,175,male,31
12,14,65,n,1,39-18,39-18=29,0.0,1,3,2478,without_carry-over,Second_Digit_Incorrect,1,XX-XX,39,18,29,male,31
12,11,66,c,-1,52-16,52-16=34,0.0,2,8,2306,with_carry-over,Second_Digit_Incorrect,0,XX-XX,52,16,34,male,31
12,11,67,n,1,66-29,66-29=33,0.0,3,2,2100,with_carry-over,Second_Digit_Incorrect,1,XX-XX,66,29,33,male,31
12,23,68,n,1,882-795,882-795=83,0.0,9,9,2040,with_carry-over,Second_Digit_Incorrect,1,XXX-XXX,882,795,83,male,31
12,4,69,n,1,12*12,12*12=132,0.0,3,1,2838,na,Incorrect_Related,1,XX*XX,12,12,132,male,31
12,25,71,n,1,784-431,784-431=357,0.0,2,0,2329,without_carry-over,Last_Digit_Incorrect,1,XXX-XXX,784,431,357,male,31
12,13,72,n,1,39-18,39-18=11,0.0,3,2,2202,without_carry-over,First_Digit_Incorrect,1,XX-XX,39,18,11,male,31
12,1,73,n,1,6*16,6*16=102,0.0,2,1,2020,na,Incorrect_Related,1,X*XX,6,16,102,male,31
12,29,74,n,1,119-52,119-52=63,0.0,8,8,2609,with_carry-over,Second_Digit_Incorrect,1,XXX-XX,119,52,63,male,31
12,26,75,n,1,479-105,479-105=384,0.0,3,1,2655,without_carry-over,Middle_Digit_Incorrect,1,XXX-XXX,479,105,384,male,31
12,32,76,n,1,465-22,465-22=453,0.0,3,1,1898,without_carry-over,Middle_Digit_Incorrect,1,XXX-XX,465,22,453,male,31
12,26,77,n,1,495-244,495-244=261,0.0,8,8,1904,without_carry-over,Middle_Digit_Incorrect,1,XXX-XXX,495,244,261,male,31
12,7,78,n,1,87*2,87*2=261,0.0,3,1,2014,na,Incorrect_Related,1,XX*X,87,2,261,male,31
12,29,81,c,-1,156-63,156-63=97,0.0,3,2,1944,with_carry-over,Second_Digit_Incorrect,0,XXX-XX,156,63,97,male,31
12,20,82,n,1,99-8,99-8=92,0.0,1,1,1915,without_carry-over,Second_Digit_Incorrect,1,XX-X,99,8,92,male,31
12,22,83,c,-1,537-444,537-444=83,0.0,8,0,1777,with_carry-over,First_Digit_Incorrect,0,XXX-XXX,537,444,83,male,31
12,1,84,n,1,8*31,8*31=240,0.0,3,1,2193,na,Incorrect_Related,1,X*XX,8,31,240,male,31
12,25,86,n,1,677-160,677-160=513,0.0,3,1,2006,without_carry-over,Last_Digit_Incorrect,1,XXX-XXX,677,160,513,male,31
12,8,87,n,1,16*4,16*4=65,0.0,3,1,2284,na,Incorrect_Unrelated,1,XX*X,16,4,65,male,31
12,22,88,n,1,326-253,326-253=83,0.0,8,8,2833,with_carry-over,First_Digit_Incorrect,1,XXX-XXX,326,253,83,male,31
12,19,89,n,1,38-2,38-2=26,0.0,1,1,1311,without_carry-over,First_Digit_Incorrect,1,XX-X,38,2,26,male,31
12,19,90,n,1,77-5,77-5=62,0.0,1,1,1325,without_carry-over,First_Digit_Incorrect,1,XX-X,77,5,62,male,31
12,22,91,n,1,652-559,652-559=83,0.0,8,2,2254,with_carry-over,First_Digit_Incorrect,1,XXX-XXX,652,559,83,male,31
12,10,93,n,1,91-57,91-57=24,0.0,3,2,1787,with_carry-over,First_Digit_Incorrect,1,XX-XX,91,57,24,male,31
12,13,94,n,1,79-68,79-68=21,0.0,3,1,1718,without_carry-over,First_Digit_Incorrect,1,XX-XX,79,68,21,male,31
12,10,95,c,-1,32-15,32-15=27,0.0,3,1,2081,with_carry-over,First_Digit_Incorrect,0,XX-XX,32,15,27,male,31
12,5,96,n,1,11*11,11*11=122,0.0,1,8,1863,na,Incorrect_Unrelated,1,XX*XX,11,11,122,male,31
12,14,98,n,1,64-12,64-12=58,0.0,3,1,2661,without_carry-over,Second_Digit_Incorrect,1,XX-XX,64,12,58,male,31
12,5,99,n,1,14*14,14*14=195,0.0,3,1,1360,na,Incorrect_Unrelated,1,XX*XX,14,14,195,male,31
12,23,100,n,1,326-253,326-253=77,0.0,0,8,1996,with_carry-over,Second_Digit_Incorrect,1,XXX-XXX,326,253,77,male,31
12,31,101,n,1,663-22,663-22=649,0.0,3,1,2249,without_carry-over,Last_Digit_Incorrect,1,XXX-XX,663,22,649,male,31
12,29,103,n,1,105-22,105-22=87,0.0,3,1,2892,with_carry-over,Second_Digit_Incorrect,1,XXX-XX,105,22,87,male,31
12,1,104,n,1,4*56,4*56=220,0.0,3,1,1818,na,Incorrect_Related,1,X*XX,4,56,220,male,31
12,22,106,n,1,788-699,788-699=79,0.0,3,2,2485,with_carry-over,First_Digit_Incorrect,1,XXX-XXX,788,699,79,male,31
12,2,108,n,1,6*16,6*16=97,0.0,3,2,2436,na,Incorrect_Unrelated,1,X*XX,6,16,97,male,31
12,16,111,n,1,42-5,42-5=27,0.0,2,1,1560,with_carry-over,First_Digit_Incorrect,1,XX-X,42,5,27,male,31
12,29,112,n,1,132-55,132-55=73,0.0,8,2,2816,with_carry-over,Second_Digit_Incorrect,1,XXX-XX,132,55,73,male,31
12,13,113,c,-1,58-16,58-16=32,0.0,1,1,2048,without_carry-over,First_Digit_Incorrect,0,XX-XX,58,16,32,male,31
12,2,114,n,1,8*31,8*31=247,0.0,2,1,1713,na,Incorrect_Unrelated,1,X*XX,8,31,247,male,31
12,23,115,n,1,788-699,788-699=81,0.0,8,2,2934,with_carry-over,Second_Digit_Incorrect,1,XXX-XXX,788,699,81,male,31
12,11,117,n,1,35-17,35-17=12,0.0,2,1,2253,with_carry-over,Second_Digit_Incorrect,1,XX-XX,35,17,12,male,31
12,17,119,n,1,51-9,51-9=48,0.0,2,1,2846,with_carry-over,Second_Digit_Incorrect,1,XX-X,51,9,48,male,31
12,2,120,n,1,3*46,3*46=139,0.0,1,1,2556,na,Incorrect_Unrelated,1,X*XX,3,46,139,male,31
12,19,121,n,1,58-6,58-6=42,0.0,1,1,2036,without_carry-over,First_Digit_Incorrect,1,XX-X,58,6,42,male,31
12,7,122,n,1,24*5,24*5=96,0.0,3,1,2299,na,Incorrect_Related,1,XX*X,24,5,96,male,31
12,14,126,n,1,72-51,72-51=29,0.0,3,2,2088,without_carry-over,Second_Digit_Incorrect,1,XX-XX,72,51,29,male,31
12,31,127,c,-1,398-66,398-66=338,0.0,3,_,0,without_carry-over,Last_Digit_Incorrect,0,XXX-XX,398,66,338,male,31
12,11,128,n,1,32-15,32-15=13,0.0,3,2,1583,with_carry-over,Second_Digit_Incorrect,1,XX-XX,32,15,13,male,31
12,14,130,n,1,58-16,58-16=48,0.0,2,1,1854,without_carry-over,Second_Digit_Incorrect,1,XX-XX,58,16,48,male,31
12,26,131,n,1,576-225,576-225=341,0.0,8,8,1958,without_carry-over,Middle_Digit_Incorrect,1,XXX-XXX,576,225,341,male,31
12,26,132,n,1,888-574,888-574=304,0.0,8,3,1992,without_carry-over,Middle_Digit_Incorrect,1,XXX-XXX,888,574,304,male,31
12,11,133,n,1,46-27,46-27=11,0.0,8,2,2000,with_carry-over,Second_Digit_Incorrect,1,XX-XX,46,27,11,male,31
12,1,134,n,1,5*29,5*29=150,0.0,3,1,1978,na,Incorrect_Related,1,X*XX,5,29,150,male,31
12,8,135,n,1,10*9,10*9=89,0.0,1,1,1438,na,Incorrect_Unrelated,1,XX*X,10,9,89,male,31
12,20,136,n,1,85-2,85-2=82,0.0,1,1,1368,without_carry-over,Second_Digit_Incorrect,1,XX-X,85,2,82,male,31
12,1,139,n,1,7*21,7*21=140,0.0,2,1,1713,na,Incorrect_Related,1,X*XX,7,21,140,male,31
12,5,140,n,1,12*12,12*12=143,0.0,2,1,1377,na,Incorrect_Unrelated,1,XX*XX,12,12,143,male,31
12,32,141,n,1,663-22,663-22=631,0.0,2,1,1319,without_carry-over,Middle_Digit_Incorrect,1,XXX-XX,663,22,631,male,31
12,14,142,n,1,46-12,46-12=36,0.0,2,1,1632,without_carry-over,Second_Digit_Incorrect,1,XX-XX,46,12,36,male,31
12,28,143,n,1,105-22,105-22=93,0.0,3,2,1924,with_carry-over,First_Digit_Incorrect,1,XXX-XX,105,22,93,male,31
12,4,146,n,1,11*11,11*11=132,0.0,3,1,1773,na,Incorrect_Related,1,XX*XX,11,11,132,male,31
12,23,147,n,1,537-444,537-444=97,0.0,9,8,1727,with_carry-over,Second_Digit_Incorrect,1,XXX-XXX,537,444,97,male,31
12,26,148,n,1,784-431,784-431=343,0.0,8,9,2930,without_carry-over,Middle_Digit_Incorrect,1,XXX-XXX,784,431,343,male,31
12,13,149,n,1,98-64,98-64=24,0.0,3,2,1733,without_carry-over,First_Digit_Incorrect,1,XX-XX,98,64,24,male,31
12,1,150,n,1,2*98,2*98=198,0.0,3,1,2245,na,Incorrect_Related,1,X*XX,2,98,198,male,31
12,1,151,n,1,9*24,9*24=207,0.0,8,1,1490,na,Incorrect_Related,1,X*XX,9,24,207,male,31
12,28,153,n,1,169-85,169-85=94,0.0,8,8,2537,with_carry-over,First_Digit_Incorrect,1,XXX-XX,169,85,94,male,31
12,22,154,n,1,254-188,254-188=76,0.0,3,8,1824,with_carry-over,First_Digit_Incorrect,1,XXX-XXX,254,188,76,male,31
12,23,158,n,1,263-177,263-177=84,0.0,3,3,2066,with_carry-over,Second_Digit_Incorrect,1,XXX-XXX,263,177,84,male,31
12,1,160,n,1,3*46,3*46=141,0.0,3,2,2157,na,Incorrect_Related,1,X*XX,3,46,141,male,31
12,16,161,n,1,88-9,88-9=69,0.0,3,1,1784,with_carry-over,First_Digit_Incorrect,1,XX-X,88,9,69,male,31
12,7,163,c,-1,15*7,15*7=90,0.0,3,9,2365,na,Incorrect_Related,0,XX*X,15,7,90,male,31
12,20,165,n,1,58-6,58-6=51,0.0,1,1,1218,without_carry-over,Second_Digit_Incorrect,1,XX-X,58,6,51,male,31
12,29,167,n,1,169-85,169-85=86,0.0,8,1,2280,with_carry-over,Second_Digit_Incorrect,1,XXX-XX,169,85,86,male,31
12,4,170,n,1,50*21,50*21=1000,0.0,3,1,1676,na,Incorrect_Related,1,XX*XX,50,21,1000,male,31
12,10,171,c,-1,46-27,46-27=29,0.0,3,3,2934,with_carry-over,First_Digit_Incorrect,0,XX-XX,46,27,29,male,31
12,10,174,n,1,81-37,81-37=54,0.0,3,8,2167,with_carry-over,First_Digit_Incorrect,1,XX-XX,81,37,54,male,31
12,7,175,n,1,61*8,61*8=549,0.0,8,3,2594,na,Incorrect_Related,1,XX*X,61,8,549,male,31
12,17,176,n,1,66-7,66-7=51,0.0,1,1,1757,with_carry-over,Second_Digit_Incorrect,1,XX-X,66,7,51,male,31
12,25,177,n,1,888-574,888-574=316,0.0,8,2,2431,without_carry-over,Last_Digit_Incorrect,1,XXX-XXX,888,574,316,male,31
12,2,179,n,1,4*56,4*56=223,0.0,3,1,1517,na,Incorrect_Unrelated,1,X*XX,4,56,223,male,31
12,10,180,c,-1,75-26,75-26=59,0.0,3,2,1838,with_carry-over,First_Digit_Incorrect,0,XX-XX,75,26,59,male,31
12,26,181,c,-1,989-577,989-577=422,0.0,3,1,2444,without_carry-over,Middle_Digit_Incorrect,0,XXX-XXX,989,577,422,male,31
12,4,182,n,1,25*11,25*11=250,0.0,3,1,1852,na,Incorrect_Related,1,XX*XX,25,11,250,male,31
12,25,183,n,1,479-105,479-105=376,0.0,3,1,2099,without_carry-over,Last_Digit_Incorrect,1,XXX-XXX,479,105,376,male,31
12,22,185,n,1,452-369,452-369=93,0.0,3,1,2536,with_carry-over,First_Digit_Incorrect,1,XXX-XXX,452,369,93,male,31
12,32,186,n,1,774-53,774-53=711,0.0,3,1,2951,without_carry-over,Middle_Digit_Incorrect,1,XXX-XX,774,53,711,male,31
12,4,187,c,-1,15*31,15*31=480,0.0,3,_,0,na,Incorrect_Related,0,XX*XX,15,31,480,male,31
12,20,190,n,1,67-3,67-3=66,0.0,3,1,2060,without_carry-over,Second_Digit_Incorrect,1,XX-X,67,3,66,male,31
12,32,191,n,1,963-52,963-52=921,0.0,3,1,2158,without_carry-over,Middle_Digit_Incorrect,1,XXX-XX,963,52,921,male,31
12,31,192,n,1,599-63,599-63=567,0.0,3,1,1835,without_carry-over,Last_Digit_Incorrect,1,XXX-XX,599,63,567,male,31
12,22,193,n,1,263-177,263-177=96,0.0,3,2,2192,with_carry-over,First_Digit_Incorrect,1,XXX-XXX,263,177,96,male,31
12,16,195,n,1,51-9,51-9=32,0.0,1,1,1779,with_carry-over,First_Digit_Incorrect,1,XX-X,51,9,32,male,31
12,25,198,n,1,576-225,576-225=359,0.0,8,2,2289,without_carry-over,Last_Digit_Incorrect,1,XXX-XXX,576,225,359,male,31
12,31,200,c,-1,888-62,888-62=824,0.0,3,_,0,without_carry-over,Last_Digit_Incorrect,0,XXX-XX,888,62,824,male,31
12,32,201,n,1,599-63,599-63=553,0.0,3,1,2626,without_carry-over,Middle_Digit_Incorrect,1,XXX-XX,599,63,553,male,31
12,31,203,c,-1,279-45,279-45=236,0.0,8,_,0,without_carry-over,Last_Digit_Incorrect,0,XXX-XX,279,45,236,male,31
12,7,206,c,-1,75*6,75*6=525,0.0,8,2,1947,na,Incorrect_Related,0,XX*X,75,6,525,male,31
12,28,210,n,1,156-63,156-63=83,0.0,3,1,1938,with_carry-over,First_Digit_Incorrect,1,XXX-XX,156,63,83,male,31
12,28,211,c,-1,148-56,148-56=82,0.0,3,2,2481,with_carry-over,First_Digit_Incorrect,0,XXX-XX,148,56,82,male,31
12,20,212,n,1,38-2,38-2=34,0.0,1,1,1148,without_carry-over,Second_Digit_Incorrect,1,XX-X,38,2,34,male,31
12,19,213,n,1,99-8,99-8=81,0.0,1,1,1837,without_carry-over,First_Digit_Incorrect,1,XX-X,99,8,81,male,31
12,17,214,n,1,88-9,88-9=71,0.0,3,1,2701,with_carry-over,Second_Digit_Incorrect,1,XX-X,88,9,71,male,31
12,4,215,n,1,13*13,13*13=156,0.0,8,2,2380,na,Incorrect_Related,1,XX*XX,13,13,156,male,31
12,4,216,n,1,25*18,25*18=475,0.0,8,1,2561,na,Incorrect_Related,1,XX*XX,25,18,475,male,31
12,23,217,n,1,652-559,652-559=97,0.0,8,8,2575,with_carry-over,Second_Digit_Incorrect,1,XXX-XXX,652,559,97,male,31
12,8,220,n,1,15*7,15*7=104,0.0,3,1,1154,na,Incorrect_Unrelated,1,XX*X,15,7,104,male,31
12,5,221,n,1,13*13,13*13=168,0.0,8,8,2063,na,Incorrect_Unrelated,1,XX*XX,13,13,168,male,31
12,8,222,n,1,55*3,55*3=166,0.0,3,1,1177,na,Incorrect_Unrelated,1,XX*X,55,3,166,male,31
12,23,223,n,1,254-188,254-188=64,0.0,8,1,1963,with_carry-over,Second_Digit_Incorrect,1,XXX-XXX,254,188,64,male,31
12,20,224,n,1,45-4,45-4=42,0.0,1,1,1725,without_carry-over,Second_Digit_Incorrect,1,XX-X,45,4,42,male,31
12,11,226,n,1,75-26,75-26=41,0.0,3,1,2204,with_carry-over,Second_Digit_Incorrect,1,XX-XX,75,26,41,male,31
12,25,227,c,-1,495-244,495-244=259,0.0,8,2,2262,without_carry-over,Last_Digit_Incorrect,0,XXX-XXX,495,244,259,male,31
12,16,228,n,1,31-9,31-9=12,0.0,3,1,2128,with_carry-over,First_Digit_Incorrect,1,XX-X,31,9,12,male,31
12,13,229,n,1,72-51,72-51=11,0.0,1,1,1582,without_carry-over,First_Digit_Incorrect,1,XX-XX,72,51,11,male,31
12,31,230,n,1,774-53,774-53=729,0.0,2,1,2065,without_carry-over,Last_Digit_Incorrect,1,XXX-XX,774,53,729,male,31
12,7,232,n,1,10*9,10*9=80,0.0,1,1,1275,na,Incorrect_Related,1,XX*X,10,9,80,male,31
12,22,233,n,1,882-795,882-795=77,0.0,8,8,2383,with_carry-over,First_Digit_Incorrect,1,XXX-XXX,882,795,77,male,31
12,11,237,n,1,91-57,91-57=36,0.0,8,2,1917,with_carry-over,Second_Digit_Incorrect,1,XX-XX,91,57,36,male,31
12,28,239,n,1,119-52,119-52=77,0.0,8,3,2268,with_carry-over,First_Digit_Incorrect,1,XXX-XX,119,52,77,male,31
12,19,240,n,1,85-2,85-2=73,0.0,1,1,1291,without_carry-over,First_Digit_Incorrect,1,XX-X,85,2,73,male,31
12,17,242,n,1,71-9,71-9=68,0.0,1,1,2711,with_carry-over,Second_Digit_Incorrect,1,XX-X,71,9,68,male,31
12,13,243,c,-1,64-12,64-12=42,0.0,1,2,2210,without_carry-over,First_Digit_Incorrect,0,XX-XX,64,12,42,male,31
12,16,245,n,1,71-9,71-9=52,0.0,2,1,2162,with_carry-over,First_Digit_Incorrect,1,XX-X,71,9,52,male,31
12,26,247,n,1,677-160,677-160=527,0.0,2,1,1987,without_carry-over,Middle_Digit_Incorrect,1,XXX-XXX,677,160,527,male,31
12,19,248,n,1,67-3,67-3=54,0.0,1,1,1220,without_carry-over,First_Digit_Incorrect,1,XX-X,67,3,54,male,31
12,28,249,c,-1,132-55,132-55=87,0.0,3,3,2576,with_carry-over,First_Digit_Incorrect,0,XXX-XX,132,55,87,male,31
12,11,250,n,1,81-37,81-37=46,0.0,3,2,1975,with_carry-over,Second_Digit_Incorrect,1,XX-XX,81,37,46,male,31
12,19,251,n,1,59-1,59-1=48,0.0,1,1,1306,without_carry-over,First_Digit_Incorrect,1,XX-X,59,1,48,male,31
12,8,253,n,1,24*5,24*5=119,0.0,3,2,2454,na,Incorrect_Unrelated,1,XX*X,24,5,119,male,31
12,29,257,c,-1,123-66,123-66=53,0.0,3,0,2803,with_carry-over,Second_Digit_Incorrect,0,XXX-XX,123,66,53,male,31
12,26,259,n,1,339-111,339-111=218,0.0,8,2,2133,without_carry-over,Middle_Digit_Incorrect,1,XXX-XXX,339,111,218,male,31
12,8,261,c,-1,61*8,61*8=489,0.0,8,_,0,na,Incorrect_Unrelated,0,XX*X,61,8,489,male,31
12,5,262,n,1,25*11,25*11=274,0.0,3,8,2024,na,Incorrect_Unrelated,1,XX*XX,25,11,274,male,31
12,32,263,c,-1,279-45,279-45=224,0.0,3,1,1970,without_carry-over,Middle_Digit_Incorrect,0,XXX-XX,279,45,224,male,31
13,28,0,n,-1,169-85,169-85=94,1.0,3,3,2052,with_carry-over,First_Digit_Incorrect,0,XXX-XX,169,85,94,female,18
13,8,1,n,-1,87*2,87*2=175,1.0,3,9,2163,na,Incorrect_Unrelated,0,XX*X,87,2,175,female,18
13,28,2,c,1,132-55,132-55=87,1.0,3,3,2623,with_carry-over,First_Digit_Incorrect,1,XXX-XX,132,55,87,female,18
13,1,3,n,-1,9*24,9*24=207,1.0,0,1,2338,na,Incorrect_Related,0,X*XX,9,24,207,female,18
13,2,4,c,1,4*56,4*56=223,1.0,3,2,1672,na,Incorrect_Unrelated,1,X*XX,4,56,223,female,18
13,13,5,c,1,82-71,82-71=21,1.0,2,0,2809,without_carry-over,First_Digit_Incorrect,1,XX-XX,82,71,21,female,18
13,31,9,n,-1,663-22,663-22=649,1.0,9,_,0,without_carry-over,Last_Digit_Incorrect,0,XXX-XX,663,22,649,female,18
13,4,11,n,-1,12*12,12*12=132,1.0,1,1,2372,na,Incorrect_Related,0,XX*XX,12,12,132,female,18
13,26,12,n,-1,495-244,495-244=261,1.0,2,8,2991,without_carry-over,Middle_Digit_Incorrect,0,XXX-XXX,495,244,261,female,18
13,11,14,n,-1,66-29,66-29=33,1.0,9,1,835,with_carry-over,Second_Digit_Incorrect,0,XX-XX,66,29,33,female,18
13,5,15,c,1,15*31,15*31=466,1.0,1,1,2041,na,Incorrect_Unrelated,1,XX*XX,15,31,466,female,18
13,25,16,n,-1,677-160,677-160=513,1.0,1,0,2653,without_carry-over,Last_Digit_Incorrect,0,XXX-XXX,677,160,513,female,18
13,29,18,n,-1,169-85,169-85=86,1.0,9,_,0,with_carry-over,Second_Digit_Incorrect,0,XXX-XX,169,85,86,female,18
13,23,19,n,-1,326-253,326-253=77,1.0,9,9,1297,with_carry-over,Second_Digit_Incorrect,0,XXX-XXX,326,253,77,female,18
13,31,21,c,1,398-66,398-66=338,1.0,2,2,2567,without_carry-over,Last_Digit_Incorrect,1,XXX-XX,398,66,338,female,18
13,14,23,n,-1,39-18,39-18=29,1.0,0,_,0,without_carry-over,Second_Digit_Incorrect,0,XX-XX,39,18,29,female,18
13,22,27,n,-1,326-253,326-253=83,1.0,1,8,1929,with_carry-over,First_Digit_Incorrect,0,XXX-XXX,326,253,83,female,18
13,29,28,n,-1,156-63,156-63=97,1.0,0,3,1631,with_carry-over,Second_Digit_Incorrect,0,XXX-XX,156,63,97,female,18
13,8,30,n,-1,75*6,75*6=451,1.0,1,3,1501,na,Incorrect_Unrelated,0,XX*X,75,6,451,female,18
13,19,31,n,-1,99-8,99-8=81,1.0,0,0,798,without_carry-over,First_Digit_Incorrect,0,XX-X,99,8,81,female,18
13,20,33,n,-1,99-8,99-8=92,1.0,0,_,0,without_carry-over,Second_Digit_Incorrect,0,XX-X,99,8,92,female,18
13,7,34,c,1,61*8,61*8=549,1.0,1,3,1394,na,Incorrect_Related,1,XX*X,61,8,549,female,18
13,25,36,c,1,989-577,989-577=418,1.0,1,3,1444,without_carry-over,Last_Digit_Incorrect,1,XXX-XXX,989,577,418,female,18
13,28,38,c,1,156-63,156-63=83,1.0,1,3,942,with_carry-over,First_Digit_Incorrect,1,XXX-XX,156,63,83,female,18
13,20,39,n,-1,58-6,58-6=51,1.0,0,_,0,without_carry-over,Second_Digit_Incorrect,0,XX-X,58,6,51,female,18
13,20,40,c,1,59-1,59-1=52,1.0,0,8,1932,without_carry-over,Second_Digit_Incorrect,1,XX-X,59,1,52,female,18
13,10,41,c,1,66-29,66-29=27,1.0,0,8,1900,with_carry-over,First_Digit_Incorrect,1,XX-XX,66,29,27,female,18
13,8,42,n,-1,16*4,16*4=65,1.0,0,_,0,na,Incorrect_Unrelated,0,XX*X,16,4,65,female,18
13,32,45,n,-1,599-63,599-63=553,1.0,0,0,1741,without_carry-over,Middle_Digit_Incorrect,0,XXX-XX,599,63,553,female,18
13,26,46,c,1,989-577,989-577=422,1.0,1,3,2134,without_carry-over,Middle_Digit_Incorrect,1,XXX-XXX,989,577,422,female,18
13,23,47,c,1,882-795,882-795=83,1.0,0,8,992,with_carry-over,Second_Digit_Incorrect,1,XXX-XXX,882,795,83,female,18
13,1,48,n,-1,2*98,2*98=198,1.0,0,_,0,na,Incorrect_Related,0,X*XX,2,98,198,female,18
13,23,49,n,-1,652-559,652-559=97,1.0,0,8,1629,with_carry-over,Second_Digit_Incorrect,0,XXX-XXX,652,559,97,female,18
13,17,51,c,1,88-9,88-9=71,1.0,0,0,2744,with_carry-over,Second_Digit_Incorrect,1,XX-X,88,9,71,female,18
13,5,52,c,1,12*12,12*12=143,1.0,0,8,2775,na,Incorrect_Unrelated,1,XX*XX,12,12,143,female,18
13,10,53,n,-1,35-17,35-17=28,1.0,0,3,1909,with_carry-over,First_Digit_Incorrect,0,XX-XX,35,17,28,female,18
13,28,54,n,-1,123-66,123-66=67,1.0,9,9,2314,with_carry-over,First_Digit_Incorrect,0,XXX-XX,123,66,67,female,18
13,23,55,n,-1,254-188,254-188=64,1.0,9,8,1318,with_carry-over,Second_Digit_Incorrect,0,XXX-XXX,254,188,64,female,18
13,5,56,c,1,13*13,13*13=168,1.0,1,1,1351,na,Incorrect_Unrelated,1,XX*XX,13,13,168,female,18
13,29,58,c,1,148-56,148-56=98,1.0,8,9,2322,with_carry-over,Second_Digit_Incorrect,1,XXX-XX,148,56,98,female,18
13,4,62,n,-1,13*13,13*13=156,1.0,9,9,911,na,Incorrect_Related,0,XX*XX,13,13,156,female,18
13,23,63,n,-1,537-444,537-444=97,1.0,9,0,1659,with_carry-over,Second_Digit_Incorrect,0,XXX-XXX,537,444,97,female,18
13,16,64,c,1,42-5,42-5=27,1.0,9,9,2151,with_carry-over,First_Digit_Incorrect,1,XX-X,42,5,27,female,18
13,11,65,n,-1,46-27,46-27=11,1.0,0,0,1780,with_carry-over,Second_Digit_Incorrect,0,XX-XX,46,27,11,female,18
13,7,66,c,1,16*4,16*4=80,1.0,9,0,1904,na,Incorrect_Related,1,XX*X,16,4,80,female,18
13,28,67,c,1,119-52,119-52=77,1.0,9,0,1513,with_carry-over,First_Digit_Incorrect,1,XXX-XX,119,52,77,female,18
13,4,69,c,1,50*21,50*21=1000,1.0,2,2,1937,na,Incorrect_Related,1,XX*XX,50,21,1000,female,18
13,16,71,c,1,45-9,45-9=26,1.0,0,0,1693,with_carry-over,First_Digit_Incorrect,1,XX-X,45,9,26,female,18
13,13,72,c,1,58-16,58-16=32,1.0,0,0,2808,without_carry-over,First_Digit_Incorrect,1,XX-XX,58,16,32,female,18
13,5,73,c,1,25*18,25*18=451,1.0,1,3,1438,na,Incorrect_Unrelated,1,XX*XX,25,18,451,female,18
13,25,75,n,-1,784-431,784-431=357,1.0,0,0,1760,without_carry-over,Last_Digit_Incorrect,0,XXX-XXX,784,431,357,female,18
13,16,76,c,1,88-9,88-9=69,1.0,0,0,2124,with_carry-over,First_Digit_Incorrect,1,XX-X,88,9,69,female,18
13,19,80,c,1,85-2,85-2=73,1.0,0,0,1714,without_carry-over,First_Digit_Incorrect,1,XX-X,85,2,73,female,18
13,32,81,c,1,279-45,279-45=224,1.0,3,3,1387,without_carry-over,Middle_Digit_Incorrect,1,XXX-XX,279,45,224,female,18
13,32,83,n,-1,888-62,888-62=836,1.0,9,0,2195,without_carry-over,Middle_Digit_Incorrect,0,XXX-XX,888,62,836,female,18
13,22,84,c,1,788-699,788-699=79,1.0,3,3,2810,with_carry-over,First_Digit_Incorrect,1,XXX-XXX,788,699,79,female,18
13,16,85,c,1,51-9,51-9=32,1.0,0,0,2249,with_carry-over,First_Digit_Incorrect,1,XX-X,51,9,32,female,18
13,17,86,c,1,42-5,42-5=33,1.0,0,0,1856,with_carry-over,Second_Digit_Incorrect,1,XX-X,42,5,33,female,18
13,31,87,c,1,599-63,599-63=567,1.0,3,3,1571,without_carry-over,Last_Digit_Incorrect,1,XXX-XX,599,63,567,female,18
13,23,89,n,-1,452-369,452-369=87,1.0,0,9,2627,with_carry-over,Second_Digit_Incorrect,0,XXX-XXX,452,369,87,female,18
13,26,90,n,-1,784-431,784-431=343,1.0,8,8,1718,without_carry-over,Middle_Digit_Incorrect,0,XXX-XXX,784,431,343,female,18
13,11,91,c,1,35-17,35-17=12,1.0,9,0,2932,with_carry-over,Second_Digit_Incorrect,1,XX-XX,35,17,12,female,18
13,22,92,n,-1,537-444,537-444=83,1.0,9,9,2761,with_carry-over,First_Digit_Incorrect,0,XXX-XXX,537,444,83,female,18
13,14,93,n,-1,98-64,98-64=36,1.0,0,1,1843,without_carry-over,Second_Digit_Incorrect,0,XX-XX,98,64,36,female,18
13,28,95,n,-1,172-99,172-99=83,1.0,1,_,0,with_carry-over,First_Digit_Incorrect,0,XXX-XX,172,99,83,female,18
13,13,96,c,1,98-64,98-64=24,1.0,9,0,2798,without_carry-over,First_Digit_Incorrect,1,XX-XX,98,64,24,female,18
13,16,97,c,1,66-7,66-7=49,1.0,0,0,2625,with_carry-over,First_Digit_Incorrect,1,XX-X,66,7,49,female,18
13,20,99,c,1,67-3,67-3=66,1.0,0,0,2778,without_carry-over,Second_Digit_Incorrect,1,XX-X,67,3,66,female,18
13,10,100,c,1,52-16,52-16=26,1.0,0,0,1915,with_carry-over,First_Digit_Incorrect,1,XX-XX,52,16,26,female,18
13,28,104,n,-1,105-22,105-22=93,1.0,0,9,1508,with_carry-over,First_Digit_Incorrect,0,XXX-XX,105,22,93,female,18
13,26,108,n,-1,576-225,576-225=341,1.0,9,8,1211,without_carry-over,Middle_Digit_Incorrect,0,XXX-XXX,576,225,341,female,18
13,19,109,c,1,45-4,45-4=31,1.0,0,0,1401,without_carry-over,First_Digit_Incorrect,1,XX-X,45,4,31,female,18
13,31,110,c,1,963-52,963-52=919,1.0,3,3,827,without_carry-over,Last_Digit_Incorrect,1,XXX-XX,963,52,919,female,18
13,2,111,n,-1,6*16,6*16=97,1.0,9,1,1943,na,Incorrect_Unrelated,0,X*XX,6,16,97,female,18
13,19,112,c,1,77-5,77-5=62,1.0,0,0,1144,without_carry-over,First_Digit_Incorrect,1,XX-X,77,5,62,female,18
13,10,113,n,-1,75-26,75-26=59,1.0,9,0,2855,with_carry-over,First_Digit_Incorrect,0,XX-XX,75,26,59,female,18
13,25,114,c,1,339-111,339-111=222,1.0,9,0,2006,without_carry-over,Last_Digit_Incorrect,1,XXX-XXX,339,111,222,female,18
