participant,subject_id,trial,drift_1,drift_2,drift_3,drift_4,choice_1,stage_1_selected_stimulus,stage_1_rt,transition,choice_2,stage_2_selected_stimulus,state,stage_2_rt,reward,redundant,stai,sds,oci,baseline_bic
0,37UEWGM5HT8KY9M9PLZR6M3SLUZ1R1,0,0.742621470936,0.272532468277,0.71669309271,0.479056705494,1,2,1054,True,1,2,1,580,1,1,50,56,0.2333333333333333,363.61582319182065
0,37UEWGM5HT8KY9M9PLZR6M3SLUZ1R1,1,0.714054437546,0.28956974681,0.711770360008,0.456458310278,1,2,713,True,1,2,1,403,0,1,50,56,0.2333333333333333,363.61582319182065
0,37UEWGM5HT8KY9M9PLZR6M3SLUZ1R1,2,0.708947909512,0.346194423994,0.714402963935,0.46593679168,0,1,828,False,1,2,1,693,0,1,50,56,0.2333333333333333,363.61582319182065
0,37UEWGM5HT8KY9M9PLZR6M3SLUZ1R1,3,0.732490347346,0.339447868367,0.704013189795,0.385709276536,0,1,509,False,0,1,1,340,1,1,50,56,0.2333333333333333,363.61582319182065
0,37UEWGM5HT8KY9M9PLZR6M3SLUZ1R1,4,0.717249489061,0.407606752597,0.721518196281,0.422206287292,0,1,718,True,1,2,0,891,1,1,50,56,0.2333333333333333,363.61582319182065
0,37UEWGM5HT8KY9M9PLZR6M3SLUZ1R1,5,0.6630928988,0.45511262148,0.721181153667,0.404565489562,1,2,716,True,0,1,1,716,1,1,50,56,0.2333333333333333,363.61582319182065
0,37UEWGM5HT8KY9M9PLZR6M3SLUZ1R1,6,0.672738831011,0.474384545792,0.743141113631,0.381869747044,1,2,648,True,0,1,1,436,1,1,50,56,0.2333333333333333,363.61582319182065
0,37UEWGM5HT8KY9M9PLZR6M3SLUZ1R1,7,0.668045339679,0.480846588706,0.731564879728,0.405588632962,1,2,504,True,0,1,1,338,0,1,50,56,0.2333333333333333,363.61582319182065
0,37UEWGM5HT8KY9M9PLZR6M3SLUZ1R1,8,0.669015262022,0.513473956177,0.728107518412,0.40687276212,0,1,535,True,1,2,0,349,1,1,50,56,0.2333333333333333,363.61582319182065
0,37UEWGM5HT8KY9M9PLZR6M3SLUZ1R1,9,0.64671120204,0.526146178979,0.730336497662,0.408509497299,1,2,760,True,0,1,1,740,1,1,50,56,0.2333333333333333,363.61582319182065
0,37UEWGM5HT8KY9M9PLZR6M3SLUZ1R1,10,0.607944402512,0.543315429143,0.724719472529,0.381349699905,1,2,671,False,0,1,0,597,1,1,50,56,0.2333333333333333,363.61582319182065
0,37UEWGM5HT8KY9M9PLZR6M3SLUZ1R1,11,0.623056850805,0.526648888826,0.697371744877,0.395908106836,0,1,401,False,1,2,1,772,1,1,50,56,0.2333333333333333,363.61582319182065
0,37UEWGM5HT8KY9M9PLZR6M3SLUZ1R1,12,0.607721669601,0.554902084053,0.689983332344,0.380218517946,0,1,535,True,0,1,0,1139,0,1,50,56,0.2333333333333333,363.61582319182065
0,37UEWGM5HT8KY9M9PLZR6M3SLUZ1R1,13,0.642416333717,0.576955978171,0.708708278957,0.341168637042,0,1,532,False,1,2,1,1156,0,1,50,56,0.2333333333333333,363.61582319182065
0,37UEWGM5HT8KY9M9PLZR6M3SLUZ1R1,14,0.614010351756,0.604034382831,0.732507162725,0.350118401239,0,1,359,True,0,1,0,347,1,1,50,56,0.2333333333333333,363.61582319182065
0,37UEWGM5HT8KY9M9PLZR6M3SLUZ1R1,15,0.680413307829,0.594441283734,0.716261232916,0.355798838571,1,2,358,True,1,2,1,835,0,1,50,56,0.2333333333333333,363.61582319182065
0,37UEWGM5HT8KY9M9PLZR6M3SLUZ1R1,16,0.67102435131,0.588086274504,0.730069464085,0.330877938548,1,2,246,True,0,1,1,227,1,1,50,56,0.2333333333333333,363.61582319182065
0,37UEWGM5HT8KY9M9PLZR6M3SLUZ1R1,17,0.718432568922,0.568204732239,0.686176168762,0.309765161617,1,2,442,True,0,1,1,269,1,1,50,56,0.2333333333333333,363.61582319182065
0,37UEWGM5HT8KY9M9PLZR6M3SLUZ1R1,18,0.713141823764,0.57865702431,0.696062430132,0.367234912443,1,2,375,True,0,1,1,260,1,1,50,56,0.2333333333333333,363.61582319182065
0,37UEWGM5HT8KY9M9PLZR6M3SLUZ1R1,19,0.707002308783,0.572723191735,0.701021460261,0.344983910079,1,2,256,True,0,1,1,420,1,1,50,56,0.2333333333333333,363.61582319182065
0,37UEWGM5HT8KY9M9PLZR6M3SLUZ1R1,20,0.697338532194,0.583247904064,0.713862580976,0.369623913462,1,2,368,False,0,1,0,292,1,1,50,56,0.2333333333333333,363.61582319182065
0,37UEWGM5HT8KY9M9PLZR6M3SLUZ1R1,21,0.683738606376,0.577831132902,0.720175638244,0.347221826515,1,2,416,False,0,1,0,204,1,1,50,56,0.2333333333333333,363.61582319182065
0,37UEWGM5HT8KY9M9PLZR6M3SLUZ1R1,22,0.723666933292,0.594247039033,0.678758987791,0.350429018148,1,2,255,True,0,1,1,204,1,1,50,56,0.2333333333333333,363.61582319182065
0,37UEWGM5HT8KY9M9PLZR6M3SLUZ1R1,23,0.722552862976,0.64363551746,0.657672810429,0.358987448701,1,2,240,True,0,1,1,196,1,1,50,56,0.2333333333333333,363.61582319182065
0,37UEWGM5HT8KY9M9PLZR6M3SLUZ1R1,24,0.729163712473,0.664465485514,0.659189229643,0.373726090068,1,2,264,True,0,1,1,227,1,1,50,56,0.2333333333333333,363.61582319182065
0,37UEWGM5HT8KY9M9PLZR6M3SLUZ1R1,25,0.736463051067,0.667677417009,0.633789239965,0.388062858383,1,2,568,False,0,1,0,252,1,1,50,56,0.2333333333333333,363.61582319182065
0,37UEWGM5HT8KY9M9PLZR6M3SLUZ1R1,26,0.743521712443,0.680410974005,0.603566014102,0.365819318125,1,2,263,False,0,1,0,266,1,1,50,56,0.2333333333333333,363.61582319182065
0,37UEWGM5HT8KY9M9PLZR6M3SLUZ1R1,27,0.732307752744,0.688129657145,0.639730342634,0.324473032481,1,2,239,False,0,1,0,228,1,1,50,56,0.2333333333333333,363.61582319182065
0,37UEWGM5HT8KY9M9PLZR6M3SLUZ1R1,28,0.736811669823,0.670863418611,0.612317833639,0.359797741125,1,2,175,True,0,1,1,260,1,1,50,56,0.2333333333333333,363.61582319182065
0,37UEWGM5HT8KY9M9PLZR6M3SLUZ1R1,29,0.743345059239,0.664878919109,0.616259626176,0.316896486661,1,2,328,True,0,1,1,445,1,1,50,56,0.2333333333333333,363.61582319182065
0,37UEWGM5HT8KY9M9PLZR6M3SLUZ1R1,30,0.746265616093,0.667204230628,0.57959946249,0.31335500672,1,2,278,True,0,1,1,300,0,1,50,56,0.2333333333333333,363.61582319182065
0,37UEWGM5HT8KY9M9PLZR6M3SLUZ1R1,31,0.723199980689,0.64267698388,0.581017754762,0.308527186817,1,2,710,True,0,1,1,268,1,1,50,56,0.2333333333333333,363.61582319182065
0,37UEWGM5HT8KY9M9PLZR6M3SLUZ1R1,32,0.694695825122,0.703101902478,0.568902198934,0.290605018323,1,2,281,False,0,1,0,227,0,1,50,56,0.2333333333333333,363.61582319182065
0,37UEWGM5HT8KY9M9PLZR6M3SLUZ1R1,33,0.67334094861,0.696419411433,0.578031478635,0.309599444775,1,2,445,True,0,1,1,268,1,1,50,56,0.2333333333333333,363.61582319182065
0,37UEWGM5HT8KY9M9PLZR6M3SLUZ1R1,34,0.652335091449,0.70438345769,0.59605536339,0.279470956194,1,2,369,True,1,2,1,597,1,1,50,56,0.2333333333333333,363.61582319182065
0,37UEWGM5HT8KY9M9PLZR6M3SLUZ1R1,35,0.657451953133,0.683837920999,0.568078580687,0.27404823551,1,2,302,True,1,2,1,436,0,1,50,56,0.2333333333333333,363.61582319182065
0,37UEWGM5HT8KY9M9PLZR6M3SLUZ1R1,36,0.675374672435,0.712212599172,0.561377542482,0.284355796866,1,2,295,True,0,1,1,396,1,1,50,56,0.2333333333333333,363.61582319182065
0,37UEWGM5HT8KY9M9PLZR6M3SLUZ1R1,37,0.671284094134,0.716259324014,0.566258884749,0.269938039503,1,2,431,False,1,2,0,716,1,1,50,56,0.2333333333333333,363.61582319182065
0,37UEWGM5HT8KY9M9PLZR6M3SLUZ1R1,38,0.654751036327,0.744322707512,0.618638427368,0.294912002446,1,2,295,False,1,2,0,370,1,1,50,56,0.2333333333333333,363.61582319182065
0,37UEWGM5HT8KY9M9PLZR6M3SLUZ1R1,39,0.660675754074,0.685611640794,0.605892201903,0.270200805787,1,2,384,False,1,2,0,373,1,1,50,56,0.2333333333333333,363.61582319182065
0,37UEWGM5HT8KY9M9PLZR6M3SLUZ1R1,40,0.697626230879,0.729448779435,0.608670557774,0.256991528728,1,2,280,False,1,2,0,459,1,1,50,56,0.2333333333333333,363.61582319182065
0,37UEWGM5HT8KY9M9PLZR6M3SLUZ1R1,41,0.726645073604,0.717332378805,0.603307527487,0.277574736158,1,2,287,False,1,2,0,372,1,1,50,56,0.2333333333333333,363.61582319182065
0,37UEWGM5HT8KY9M9PLZR6M3SLUZ1R1,42,0.710785605187,0.73572032618,0.603035835786,0.300463039776,1,2,270,True,1,2,1,412,0,1,50,56,0.2333333333333333,363.61582319182065
0,37UEWGM5HT8KY9M9PLZR6M3SLUZ1R1,43,0.690886938659,0.740720643321,0.608800181298,0.305367115844,1,2,285,True,0,1,1,308,1,1,50,56,0.2333333333333333,363.61582319182065
0,37UEWGM5HT8KY9M9PLZR6M3SLUZ1R1,44,0.682073026999,0.726886066092,0.597549552128,0.298118154697,1,2,311,True,0,1,1,267,1,1,50,56,0.2333333333333333,363.61582319182065
0,37UEWGM5HT8KY9M9PLZR6M3SLUZ1R1,45,0.692167085493,0.701363725585,0.639345636163,0.368054277054,1,2,368,False,0,1,0,420,1,1,50,56,0.2333333333333333,363.61582319182065
0,37UEWGM5HT8KY9M9PLZR6M3SLUZ1R1,46,0.726979525113,0.685298681928,0.665140217735,0.392550601145,1,2,256,False,0,1,0,260,1,1,50,56,0.2333333333333333,363.61582319182065
0,37UEWGM5HT8KY9M9PLZR6M3SLUZ1R1,47,0.734914379351,0.68153045423,0.667316355854,0.380373869228,1,2,288,True,1,2,1,380,0,1,50,56,0.2333333333333333,363.61582319182065
0,37UEWGM5HT8KY9M9PLZR6M3SLUZ1R1,48,0.714865063908,0.653994687644,0.672014216512,0.367354016553,1,2,333,True,0,1,1,380,1,1,50,56,0.2333333333333333,363.61582319182065
0,37UEWGM5HT8KY9M9PLZR6M3SLUZ1R1,49,0.713201331899,0.676140093398,0.674811303487,0.344411485936,1,2,295,True,0,1,1,250,0,1,50,56,0.2333333333333333,363.61582319182065
0,37UEWGM5HT8KY9M9PLZR6M3SLUZ1R1,50,0.73310943824,0.669322372281,0.662652287375,0.29720573873,1,2,278,False,0,1,0,628,1,1,50,56,0.2333333333333333,363.61582319182065
0,37UEWGM5HT8KY9M9PLZR6M3SLUZ1R1,51,0.700235093867,0.701682886358,0.677069605794,0.332317401302,1,2,262,True,0,1,1,276,1,1,50,56,0.2333333333333333,363.61582319182065
0,37UEWGM5HT8KY9M9PLZR6M3SLUZ1R1,52,0.681608516568,0.679629779822,0.681276831864,0.288342858569,1,2,232,False,0,1,0,195,1,1,50,56,0.2333333333333333,363.61582319182065
0,37UEWGM5HT8KY9M9PLZR6M3SLUZ1R1,53,0.611253601709,0.660626826063,0.70952385264,0.330572173264,1,2,624,True,0,1,1,308,1,1,50,56,0.2333333333333333,363.61582319182065
0,37UEWGM5HT8KY9M9PLZR6M3SLUZ1R1,54,0.66703777187,0.672946186741,0.737926106414,0.317011361338,1,2,327,True,0,1,1,364,0,1,50,56,0.2333333333333333,363.61582319182065
0,37UEWGM5HT8KY9M9PLZR6M3SLUZ1R1,55,0.663328365422,0.668736431958,0.720239436976,0.329794236079,1,2,477,True,0,1,1,405,1,1,50,56,0.2333333333333333,363.61582319182065
0,37UEWGM5HT8KY9M9PLZR6M3SLUZ1R1,56,0.612291779763,0.64812962841,0.714275483314,0.285713898761,1,2,263,False,0,1,0,300,1,1,50,56,0.2333333333333333,363.61582319182065
0,37UEWGM5HT8KY9M9PLZR6M3SLUZ1R1,57,0.601996752534,0.690302803125,0.676016484568,0.271887355155,1,2,273,True,0,1,1,267,1,1,50,56,0.2333333333333333,363.61582319182065
0,37UEWGM5HT8KY9M9PLZR6M3SLUZ1R1,58,0.613291721538,0.709488073072,0.661531678887,0.299130690859,1,2,470,True,0,1,1,236,0,1,50,56,0.2333333333333333,363.61582319182065
0,37UEWGM5HT8KY9M9PLZR6M3SLUZ1R1,59,0.576180172387,0.710892275986,0.652653677393,0.314466701606,1,2,263,True,0,1,1,234,1,1,50,56,0.2333333333333333,363.61582319182065
0,37UEWGM5HT8KY9M9PLZR6M3SLUZ1R1,60,0.55143212238,0.6853037472,0.679903912304,0.298421798989,1,2,346,True,0,1,1,197,1,1,50,56,0.2333333333333333,363.61582319182065
0,37UEWGM5HT8KY9M9PLZR6M3SLUZ1R1,61,0.552884156424,0.712766267125,0.703638809173,0.32433324524,1,2,264,True,0,1,1,292,0,1,50,56,0.2333333333333333,363.61582319182065
0,37UEWGM5HT8KY9M9PLZR6M3SLUZ1R1,62,0.523932583535,0.711521035133,0.679767370885,0.337888246509,1,2,295,True,0,1,1,412,1,1,50,56,0.2333333333333333,363.61582319182065
0,37UEWGM5HT8KY9M9PLZR6M3SLUZ1R1,63,0.463568418654,0.711676676089,0.654057416911,0.301245991201,1,2,329,True,0,1,1,261,0,1,50,56,0.2333333333333333,363.61582319182065
0,37UEWGM5HT8KY9M9PLZR6M3SLUZ1R1,64,0.512684775876,0.72135123212,0.608900413955,0.307315993953,1,2,254,True,1,2,1,211,0,1,50,56,0.2333333333333333,363.61582319182065
0,37UEWGM5HT8KY9M9PLZR6M3SLUZ1R1,65,0.4789698412,0.699848934728,0.614568831315,0.250436393356,1,2,333,False,0,1,0,252,0,1,50,56,0.2333333333333333,363.61582319182065
0,37UEWGM5HT8KY9M9PLZR6M3SLUZ1R1,66,0.4762029504,0.694385754211,0.632767436931,0.284111851193,1,2,288,True,0,1,1,356,1,1,50,56,0.2333333333333333,363.61582319182065
0,37UEWGM5HT8KY9M9PLZR6M3SLUZ1R1,67,0.507081830395,0.677726367322,0.626004736862,0.317292542624,1,2,288,True,0,1,1,547,1,1,50,56,0.2333333333333333,363.61582319182065
0,37UEWGM5HT8KY9M9PLZR6M3SLUZ1R1,68,0.530878795539,0.655313569542,0.603059838512,0.35399122944,1,2,371,True,0,1,1,380,0,1,50,56,0.2333333333333333,363.61582319182065
0,37UEWGM5HT8KY9M9PLZR6M3SLUZ1R1,69,0.515056866669,0.621614881021,0.58701353054,0.316633763971,1,2,302,False,0,1,0,508,1,1,50,56,0.2333333333333333,363.61582319182065
0,37UEWGM5HT8KY9M9PLZR6M3SLUZ1R1,70,0.564088952011,0.605891511566,0.597831961545,0.302344162838,1,2,264,True,1,2,1,701,1,1,50,56,0.2333333333333333,363.61582319182065
0,37UEWGM5HT8KY9M9PLZR6M3SLUZ1R1,71,0.54449084523,0.577146163723,0.59199090907,0.331577263471,1,2,262,True,1,2,1,684,1,1,50,56,0.2333333333333333,363.61582319182065
0,37UEWGM5HT8KY9M9PLZR6M3SLUZ1R1,72,0.566979079908,0.605338027274,0.564635273227,0.330100786862,1,2,304,True,1,2,1,396,0,1,50,56,0.2333333333333333,363.61582319182065
0,37UEWGM5HT8KY9M9PLZR6M3SLUZ1R1,73,0.551299433382,0.607923806021,0.548505305566,0.309216084463,1,2,272,True,1,2,1,283,1,1,50,56,0.2333333333333333,363.61582319182065
0,37UEWGM5HT8KY9M9PLZR6M3SLUZ1R1,74,0.542745978,0.589975468932,0.538285961481,0.334258316899,1,2,255,True,1,2,1,332,0,1,50,56,0.2333333333333333,363.61582319182065
0,37UEWGM5HT8KY9M9PLZR6M3SLUZ1R1,75,0.561497649091,0.630898581991,0.556776422344,0.331123452327,1,2,246,True,0,1,1,588,1,1,50,56,0.2333333333333333,363.61582319182065
0,37UEWGM5HT8KY9M9PLZR6M3SLUZ1R1,76,0.589017199812,0.627952603444,0.550030110147,0.346628080055,1,2,272,True,0,1,1,227,0,1,50,56,0.2333333333333333,363.61582319182065
0,37UEWGM5HT8KY9M9PLZR6M3SLUZ1R1,77,0.584186560288,0.579581394278,0.557708870011,0.372955434066,1,2,222,True,1,2,1,765,0,1,50,56,0.2333333333333333,363.61582319182065
0,37UEWGM5HT8KY9M9PLZR6M3SLUZ1R1,78,0.663978965977,0.603348757443,0.596450133085,0.335534554466,1,2,246,False,0,1,0,805,1,1,50,56,0.2333333333333333,363.61582319182065
0,37UEWGM5HT8KY9M9PLZR6M3SLUZ1R1,79,0.685488538842,0.661324828013,0.628562826405,0.317508487146,1,2,344,False,0,1,0,378,0,1,50,56,0.2333333333333333,363.61582319182065
0,37UEWGM5HT8KY9M9PLZR6M3SLUZ1R1,80,0.689540608913,0.642447759192,0.639191253292,0.280146174731,1,2,189,True,0,1,1,1053,1,1,50,56,0.2333333333333333,363.61582319182065
0,37UEWGM5HT8KY9M9PLZR6M3SLUZ1R1,81,0.710426203535,0.655563840418,0.647453282745,0.260992840152,0,1,334,True,0,1,0,484,1,1,50,56,0.2333333333333333,363.61582319182065
0,37UEWGM5HT8KY9M9PLZR6M3SLUZ1R1,82,0.69084005601,0.626748569246,0.618006356653,0.265458837477,0,1,351,True,0,1,0,242,1,1,50,56,0.2333333333333333,363.61582319182065
0,37UEWGM5HT8KY9M9PLZR6M3SLUZ1R1,83,0.66045000665,0.589118902235,0.582373787352,0.266296660997,0,1,358,True,0,1,0,275,1,1,50,56,0.2333333333333333,363.61582319182065
0,37UEWGM5HT8KY9M9PLZR6M3SLUZ1R1,84,0.692987016621,0.603946174416,0.594937517543,0.304179889849,0,1,359,True,0,1,0,333,0,1,50,56,0.2333333333333333,363.61582319182065
0,37UEWGM5HT8KY9M9PLZR6M3SLUZ1R1,85,0.742301951068,0.638028136197,0.598561432857,0.339665013074,0,1,271,False,0,1,1,267,0,1,50,56,0.2333333333333333,363.61582319182065
0,37UEWGM5HT8KY9M9PLZR6M3SLUZ1R1,86,0.686698795879,0.686641888378,0.563299184018,0.332946702685,0,1,639,True,1,2,0,380,1,1,50,56,0.2333333333333333,363.61582319182065
0,37UEWGM5HT8KY9M9PLZR6M3SLUZ1R1,87,0.690926289258,0.664793565833,0.567644663702,0.350846869979,0,1,263,True,1,2,0,277,1,1,50,56,0.2333333333333333,363.61582319182065
0,37UEWGM5HT8KY9M9PLZR6M3SLUZ1R1,88,0.639906407079,0.672512670635,0.552287929984,0.382400271729,0,1,248,True,1,2,0,195,1,1,50,56,0.2333333333333333,363.61582319182065
0,37UEWGM5HT8KY9M9PLZR6M3SLUZ1R1,89,0.599526089753,0.702037914288,0.551499978304,0.385810615866,0,1,264,False,1,2,1,204,0,1,50,56,0.2333333333333333,363.61582319182065
0,37UEWGM5HT8KY9M9PLZR6M3SLUZ1R1,90,0.571792989341,0.691019576673,0.521950006971,0.435034807193,0,1,245,True,1,2,0,683,1,1,50,56,0.2333333333333333,363.61582319182065
0,37UEWGM5HT8KY9M9PLZR6M3SLUZ1R1,91,0.584683137779,0.706512645771,0.51122706761,0.445767985761,0,1,294,True,1,2,0,315,1,1,50,56,0.2333333333333333,363.61582319182065
0,37UEWGM5HT8KY9M9PLZR6M3SLUZ1R1,92,0.554861172246,0.711737596545,0.492981519726,0.440683358106,0,1,71,False,1,2,1,142,1,1,50,56,0.2333333333333333,363.61582319182065
0,37UEWGM5HT8KY9M9PLZR6M3SLUZ1R1,93,0.56691541983,0.724832553503,0.484850092769,0.421860460474,0,1,285,True,1,2,0,227,1,1,50,56,0.2333333333333333,363.61582319182065
0,37UEWGM5HT8KY9M9PLZR6M3SLUZ1R1,94,0.566678637331,0.720026008902,0.464133901312,0.41295891552,0,1,377,False,1,2,1,219,1,1,50,56,0.2333333333333333,363.61582319182065
0,37UEWGM5HT8KY9M9PLZR6M3SLUZ1R1,95,0.526879516376,0.731858231709,0.476966682047,0.397678154404,0,1,536,True,1,2,0,244,1,1,50,56,0.2333333333333333,363.61582319182065
0,37UEWGM5HT8KY9M9PLZR6M3SLUZ1R1,96,0.495215171763,0.724235293032,0.515579848533,0.441247188452,0,1,239,False,1,2,1,229,1,1,50,56,0.2333333333333333,363.61582319182065
0,37UEWGM5HT8KY9M9PLZR6M3SLUZ1R1,97,0.451702131943,0.722808342847,0.534160534675,0.393018126972,0,1,321,False,1,2,1,276,1,1,50,56,0.2333333333333333,363.61582319182065
0,37UEWGM5HT8KY9M9PLZR6M3SLUZ1R1,98,0.472061866997,0.665813203964,0.484894662984,0.383038572744,0,1,295,True,1,2,0,233,0,1,50,56,0.2333333333333333,363.61582319182065
0,37UEWGM5HT8KY9M9PLZR6M3SLUZ1R1,99,0.44047725176,0.677258434574,0.482475294507,0.368141735434,0,1,345,False,0,1,1,236,0,1,50,56,0.2333333333333333,363.61582319182065
0,37UEWGM5HT8KY9M9PLZR6M3SLUZ1R1,100,0.465939039681,0.675360161858,0.477210773749,0.392195785011,0,1,254,True,1,2,0,196,0,1,50,56,0.2333333333333333,363.61582319182065
0,37UEWGM5HT8KY9M9PLZR6M3SLUZ1R1,101,0.484780332161,0.725432311224,0.488300642483,0.393341274419,0,1,175,False,1,2,1,716,0,1,50,56,0.2333333333333333,363.61582319182065
0,37UEWGM5HT8KY9M9PLZR6M3SLUZ1R1,102,0.483232027022,0.713118198543,0.510764901989,0.382117662374,0,1,335,True,0,1,0,596,1,1,50,56,0.2333333333333333,363.61582319182065
0,37UEWGM5HT8KY9M9PLZR6M3SLUZ1R1,103,0.487664781079,0.746520841043,0.488735788724,0.354687213322,0,1,255,True,0,1,0,236,1,1,50,56,0.2333333333333333,363.61582319182065
0,37UEWGM5HT8KY9M9PLZR6M3SLUZ1R1,104,0.466196046634,0.738623462929,0.484563566009,0.359013680846,0,1,246,True,0,1,0,132,0,1,50,56,0.2333333333333333,363.61582319182065
0,37UEWGM5HT8KY9M9PLZR6M3SLUZ1R1,105,0.442305640081,0.735684662005,0.457603870736,0.422503378505,0,1,295,True,1,2,0,747,0,1,50,56,0.2333333333333333,363.61582319182065
0,37UEWGM5HT8KY9M9PLZR6M3SLUZ1R1,106,0.431291039251,0.737970405597,0.474213679147,0.440406871436,0,1,651,True,0,1,0,638,0,1,50,56,0.2333333333333333,363.61582319182065
0,37UEWGM5HT8KY9M9PLZR6M3SLUZ1R1,107,0.411758552591,0.726683838125,0.424416267289,0.437138352581,0,1,374,False,1,2,1,226,1,1,50,56,0.2333333333333333,363.61582319182065
0,37UEWGM5HT8KY9M9PLZR6M3SLUZ1R1,108,0.426170150128,0.716216452261,0.437737338122,0.394549101032,0,1,320,False,1,2,1,261,1,1,50,56,0.2333333333333333,363.61582319182065
0,37UEWGM5HT8KY9M9PLZR6M3SLUZ1R1,109,0.459510607636,0.734927828656,0.409597477729,0.408865363166,0,1,183,True,1,2,0,252,1,1,50,56,0.2333333333333333,363.61582319182065
0,37UEWGM5HT8KY9M9PLZR6M3SLUZ1R1,110,0.427067584609,0.687396330944,0.422055811318,0.420048706351,0,1,290,True,1,2,0,300,0,1,50,56,0.2333333333333333,363.61582319182065
0,37UEWGM5HT8KY9M9PLZR6M3SLUZ1R1,111,0.396708940978,0.671869621097,0.433717704758,0.409536015214,0,1,263,True,1,2,0,732,1,1,50,56,0.2333333333333333,363.61582319182065
0,37UEWGM5HT8KY9M9PLZR6M3SLUZ1R1,112,0.392163878606,0.674074699172,0.421056076456,0.417970716472,0,1,287,True,1,2,0,380,1,1,50,56,0.2333333333333333,363.61582319182065
0,37UEWGM5HT8KY9M9PLZR6M3SLUZ1R1,113,0.405190010723,0.621025368561,0.435236166576,0.408741840632,0,1,279,False,1,2,1,291,1,1,50,56,0.2333333333333333,363.61582319182065
0,37UEWGM5HT8KY9M9PLZR6M3SLUZ1R1,114,0.438900538552,0.653627324378,0.436495632727,0.413355976541,0,1,286,True,1,2,0,299,1,1,50,56,0.2333333333333333,363.61582319182065
0,37UEWGM5HT8KY9M9PLZR6M3SLUZ1R1,115,0.466364070331,0.639706334825,0.420982311789,0.37690224461,0,1,256,True,1,2,0,253,0,1,50,56,0.2333333333333333,363.61582319182065
0,37UEWGM5HT8KY9M9PLZR6M3SLUZ1R1,116,0.44593666449,0.664991972369,0.444372392431,0.369366843978,0,1,87,True,1,2,0,188,0,1,50,56,0.2333333333333333,363.61582319182065
0,37UEWGM5HT8KY9M9PLZR6M3SLUZ1R1,117,0.412733194721,0.661210229012,0.483239814095,0.329894679932,0,1,288,True,1,2,0,986,0,1,50,56,0.2333333333333333,363.61582319182065
0,37UEWGM5HT8KY9M9PLZR6M3SLUZ1R1,118,0.431345823754,0.653591919012,0.468808732687,0.333441714697,0,1,311,True,0,1,0,283,0,1,50,56,0.2333333333333333,363.61582319182065
0,37UEWGM5HT8KY9M9PLZR6M3SLUZ1R1,119,0.447208271084,0.62713216337,0.475007496911,0.32802780441,1,2,364,False,1,2,0,363,0,1,50,56,0.2333333333333333,363.61582319182065
0,37UEWGM5HT8KY9M9PLZR6M3SLUZ1R1,120,0.504181576761,0.598908450997,0.515211526458,0.320161421711,1,2,254,True,0,1,1,389,1,1,50,56,0.2333333333333333,363.61582319182065
0,37UEWGM5HT8KY9M9PLZR6M3SLUZ1R1,121,0.538685689494,0.59872734267,0.581245967994,0.326761785411,1,2,287,True,0,1,1,252,1,1,50,56,0.2333333333333333,363.61582319182065
0,37UEWGM5HT8KY9M9PLZR6M3SLUZ1R1,122,0.545842916492,0.565631827948,0.572375519669,0.349220564181,1,2,399,False,0,1,0,411,0,1,50,56,0.2333333333333333,363.61582319182065
0,37UEWGM5HT8KY9M9PLZR6M3SLUZ1R1,123,0.534424600245,0.575336677774,0.589370511578,0.317026148602,1,2,294,False,0,1,0,252,0,1,50,56,0.2333333333333333,363.61582319182065
0,37UEWGM5HT8KY9M9PLZR6M3SLUZ1R1,124,0.526371932117,0.577041141149,0.5830435132,0.304210055249,1,2,286,False,1,2,0,179,1,1,50,56,0.2333333333333333,363.61582319182065
0,37UEWGM5HT8KY9M9PLZR6M3SLUZ1R1,125,0.49512953076,0.52563292561,0.545587063314,0.312630586025,1,2,305,True,1,2,1,420,1,1,50,56,0.2333333333333333,363.61582319182065
0,37UEWGM5HT8KY9M9PLZR6M3SLUZ1R1,126,0.530068526255,0.510034012006,0.577867996947,0.29247870187,1,2,327,False,1,2,0,276,1,1,50,56,0.2333333333333333,363.61582319182065
0,37UEWGM5HT8KY9M9PLZR6M3SLUZ1R1,127,0.521176469857,0.476556608777,0.587986796524,0.287512284603,1,2,303,True,1,2,1,860,0,1,50,56,0.2333333333333333,363.61582319182065
0,37UEWGM5HT8KY9M9PLZR6M3SLUZ1R1,128,0.517407173469,0.451511907077,0.63486949102,0.272527687021,1,2,294,True,1,2,1,652,0,1,50,56,0.2333333333333333,363.61582319182065
0,37UEWGM5HT8KY9M9PLZR6M3SLUZ1R1,129,0.519013950795,0.441926101218,0.638098815725,0.259425093522,1,2,277,True,0,1,1,348,0,1,50,56,0.2333333333333333,363.61582319182065
0,37UEWGM5HT8KY9M9PLZR6M3SLUZ1R1,130,0.498890596703,0.467441570089,0.653874797874,0.255058599684,1,2,294,True,0,1,1,595,0,1,50,56,0.2333333333333333,363.61582319182065
0,37UEWGM5HT8KY9M9PLZR6M3SLUZ1R1,131,0.506975099993,0.5138196349,0.723727134143,0.289296114384,0,1,246,True,1,2,0,675,0,1,50,56,0.2333333333333333,363.61582319182065
0,37UEWGM5HT8KY9M9PLZR6M3SLUZ1R1,132,0.478373189761,0.515418585011,0.739344280162,0.319696009516,0,1,367,True,0,1,0,267,0,1,50,56,0.2333333333333333,363.61582319182065
0,37UEWGM5HT8KY9M9PLZR6M3SLUZ1R1,133,0.464117630012,0.505406846973,0.710796212728,0.358548929167,0,1,278,True,1,2,0,444,0,1,50,56,0.2333333333333333,363.61582319182065
0,37UEWGM5HT8KY9M9PLZR6M3SLUZ1R1,134,0.438161564291,0.512963083972,0.663310280412,0.414164557033,1,2,278,True,0,1,1,114,0,1,50,56,0.2333333333333333,363.61582319182065
0,37UEWGM5HT8KY9M9PLZR6M3SLUZ1R1,135,0.437804854271,0.521267445542,0.707140312177,0.381977117266,0,1,406,False,0,1,1,132,0,1,50,56,0.2333333333333333,363.61582319182065
0,37UEWGM5HT8KY9M9PLZR6M3SLUZ1R1,136,0.39550576703,0.530734677637,0.722301577653,0.386129965171,1,2,256,True,1,2,1,268,0,1,50,56,0.2333333333333333,363.61582319182065
0,37UEWGM5HT8KY9M9PLZR6M3SLUZ1R1,137,0.369825946503,0.529297444232,0.705073970166,0.412192170598,1,2,286,False,0,1,0,805,0,1,50,56,0.2333333333333333,363.61582319182065
0,37UEWGM5HT8KY9M9PLZR6M3SLUZ1R1,138,0.340955933434,0.535677091359,0.676049799996,0.397064309229,1,2,286,False,1,2,0,236,1,1,50,56,0.2333333333333333,363.61582319182065
0,37UEWGM5HT8KY9M9PLZR6M3SLUZ1R1,139,0.327841930378,0.494485627413,0.67379787808,0.385319942822,1,2,62,False,1,2,0,284,1,1,50,56,0.2333333333333333,363.61582319182065
0,37UEWGM5HT8KY9M9PLZR6M3SLUZ1R1,140,0.346949999261,0.50276959175,0.631642167891,0.352071439617,1,2,263,False,1,2,0,100,0,1,50,56,0.2333333333333333,363.61582319182065
0,37UEWGM5HT8KY9M9PLZR6M3SLUZ1R1,141,0.327683547083,0.479498572317,0.588172558354,0.338016967094,1,2,334,True,0,1,1,1460,1,1,50,56,0.2333333333333333,363.61582319182065
0,37UEWGM5HT8KY9M9PLZR6M3SLUZ1R1,142,0.345778721519,0.463422938754,0.621093596977,0.356575357295,1,2,265,True,0,1,1,363,1,1,50,56,0.2333333333333333,363.61582319182065
0,37UEWGM5HT8KY9M9PLZR6M3SLUZ1R1,143,0.364945822642,0.467786950715,0.638775660409,0.387799137668,1,2,64,False,1,2,0,876,0,1,50,56,0.2333333333333333,363.61582319182065
0,37UEWGM5HT8KY9M9PLZR6M3SLUZ1R1,144,0.366856198242,0.479262099846,0.638164830174,0.392213022096,1,2,271,False,0,1,0,731,1,1,50,56,0.2333333333333333,363.61582319182065
0,37UEWGM5HT8KY9M9PLZR6M3SLUZ1R1,145,0.353443186556,0.456792617563,0.592292922404,0.419555911538,1,2,271,False,0,1,0,349,1,1,50,56,0.2333333333333333,363.61582319182065
0,37UEWGM5HT8KY9M9PLZR6M3SLUZ1R1,146,0.301722088337,0.45830036555,0.622835797891,0.375761582739,1,2,313,True,0,1,1,283,0,1,50,56,0.2333333333333333,363.61582319182065
0,37UEWGM5HT8KY9M9PLZR6M3SLUZ1R1,147,0.264341556455,0.449775355421,0.662131127511,0.349120033327,1,2,29,True,1,2,1,438,0,1,50,56,0.2333333333333333,363.61582319182065
0,37UEWGM5HT8KY9M9PLZR6M3SLUZ1R1,148,0.264668248755,0.494929555671,0.639769434173,0.358401192005,0,1,294,True,1,2,0,307,0,1,50,56,0.2333333333333333,363.61582319182065
0,37UEWGM5HT8KY9M9PLZR6M3SLUZ1R1,149,0.30110562558,0.464280328832,0.609903853688,0.377339726515,0,1,288,True,0,1,0,267,0,1,50,56,0.2333333333333333,363.61582319182065
0,37UEWGM5HT8KY9M9PLZR6M3SLUZ1R1,150,0.280623215878,0.481986230299,0.626281431716,0.383460733712,1,2,230,False,0,1,0,372,0,1,50,56,0.2333333333333333,363.61582319182065
0,37UEWGM5HT8KY9M9PLZR6M3SLUZ1R1,151,0.304683770407,0.502435718544,0.643640302365,0.391815879345,1,2,16,True,1,2,1,277,0,1,50,56,0.2333333333333333,363.61582319182065
0,37UEWGM5HT8KY9M9PLZR6M3SLUZ1R1,152,0.283322642867,0.498139442605,0.642128054045,0.352140031719,1,2,574,True,0,1,1,500,1,1,50,56,0.2333333333333333,363.61582319182065
0,37UEWGM5HT8KY9M9PLZR6M3SLUZ1R1,153,0.306269030949,0.451614361835,0.654672308956,0.348380129875,1,2,306,True,0,1,1,308,0,1,50,56,0.2333333333333333,363.61582319182065
0,37UEWGM5HT8KY9M9PLZR6M3SLUZ1R1,154,0.308778603441,0.402575938955,0.656372423923,0.342612192118,1,2,333,True,0,1,1,251,0,1,50,56,0.2333333333333333,363.61582319182065
0,37UEWGM5HT8KY9M9PLZR6M3SLUZ1R1,155,0.33451263543,0.446579202849,0.658542188835,0.357265872674,1,2,16,False,0,1,0,683,0,1,50,56,0.2333333333333333,363.61582319182065
0,37UEWGM5HT8KY9M9PLZR6M3SLUZ1R1,156,0.297271386897,0.430236977273,0.63540553159,0.375693693187,1,2,184,True,1,2,1,243,0,1,50,56,0.2333333333333333,363.61582319182065
0,37UEWGM5HT8KY9M9PLZR6M3SLUZ1R1,157,0.28858538497,0.452657205597,0.623941677319,0.338900571893,1,2,310,True,0,1,1,413,1,1,50,56,0.2333333333333333,363.61582319182065
0,37UEWGM5HT8KY9M9PLZR6M3SLUZ1R1,158,0.25563944793,0.465453983137,0.603769339648,0.360800282578,1,2,304,False,1,2,0,940,0,1,50,56,0.2333333333333333,363.61582319182065
0,37UEWGM5HT8KY9M9PLZR6M3SLUZ1R1,159,0.26148909479,0.460071212732,0.606546526811,0.307855002198,1,2,326,True,0,1,1,204,1,1,50,56,0.2333333333333333,363.61582319182065
0,37UEWGM5HT8KY9M9PLZR6M3SLUZ1R1,160,0.274099036929,0.459478985881,0.637334141907,0.33532419807,1,2,288,True,0,1,1,210,1,1,50,56,0.2333333333333333,363.61582319182065
0,37UEWGM5HT8KY9M9PLZR6M3SLUZ1R1,161,0.307966452014,0.46872058764,0.637873391684,0.34623859314,1,2,80,True,0,1,1,274,0,1,50,56,0.2333333333333333,363.61582319182065
0,37UEWGM5HT8KY9M9PLZR6M3SLUZ1R1,162,0.270379620162,0.466356103946,0.646717215096,0.393464062872,1,2,38,True,1,2,1,299,0,1,50,56,0.2333333333333333,363.61582319182065
0,37UEWGM5HT8KY9M9PLZR6M3SLUZ1R1,163,0.251737674833,0.479336880963,0.619903246132,0.413261205596,1,2,101,False,1,2,0,243,0,1,50,56,0.2333333333333333,363.61582319182065
0,37UEWGM5HT8KY9M9PLZR6M3SLUZ1R1,164,0.286525398425,0.440569128367,0.665760959524,0.388390710515,0,1,246,True,0,1,0,212,1,1,50,56,0.2333333333333333,363.61582319182065
0,37UEWGM5HT8KY9M9PLZR6M3SLUZ1R1,165,0.261801143272,0.465180125042,0.643203603033,0.383915211172,0,1,239,False,0,1,1,220,1,1,50,56,0.2333333333333333,363.61582319182065
0,37UEWGM5HT8KY9M9PLZR6M3SLUZ1R1,166,0.272758270544,0.481601358765,0.636703274324,0.398893295312,0,1,281,True,0,1,0,236,1,1,50,56,0.2333333333333333,363.61582319182065
0,37UEWGM5HT8KY9M9PLZR6M3SLUZ1R1,167,0.269275042302,0.502893453039,0.650418341444,0.359880215179,0,1,318,True,0,1,0,228,0,1,50,56,0.2333333333333333,363.61582319182065
0,37UEWGM5HT8KY9M9PLZR6M3SLUZ1R1,168,0.321244877244,0.528573132907,0.66957626249,0.376463063499,0,1,303,True,0,1,0,284,0,1,50,56,0.2333333333333333,363.61582319182065
0,37UEWGM5HT8KY9M9PLZR6M3SLUZ1R1,169,0.327522928076,0.508532688437,0.657874425455,0.417988749297,0,1,263,True,1,2,0,291,1,1,50,56,0.2333333333333333,363.61582319182065
0,37UEWGM5HT8KY9M9PLZR6M3SLUZ1R1,170,0.34872481577,0.521911121289,0.655656229698,0.380266706389,0,1,342,True,1,2,0,237,0,1,50,56,0.2333333333333333,363.61582319182065
0,37UEWGM5HT8KY9M9PLZR6M3SLUZ1R1,171,0.336841396031,0.530428789858,0.665971836127,0.435348605431,0,1,297,False,0,1,1,267,1,1,50,56,0.2333333333333333,363.61582319182065
0,37UEWGM5HT8KY9M9PLZR6M3SLUZ1R1,172,0.341837444982,0.543180536576,0.641218605426,0.435268405162,0,1,271,True,0,1,0,204,0,1,50,56,0.2333333333333333,363.61582319182065
0,37UEWGM5HT8KY9M9PLZR6M3SLUZ1R1,173,0.361177028459,0.521201170706,0.655514534501,0.398994989097,0,1,270,True,1,2,0,220,1,1,50,56,0.2333333333333333,363.61582319182065
0,37UEWGM5HT8KY9M9PLZR6M3SLUZ1R1,174,0.364315395636,0.512763678168,0.648019936904,0.412392336042,0,1,279,True,1,2,0,203,1,1,50,56,0.2333333333333333,363.61582319182065
0,37UEWGM5HT8KY9M9PLZR6M3SLUZ1R1,175,0.325623919085,0.539890651839,0.64529531605,0.410745872858,0,1,312,True,1,2,0,220,0,1,50,56,0.2333333333333333,363.61582319182065
0,37UEWGM5HT8KY9M9PLZR6M3SLUZ1R1,176,0.328074179675,0.524925149085,0.619815607172,0.411582007364,0,1,262,True,1,2,0,172,1,1,50,56,0.2333333333333333,363.61582319182065
0,37UEWGM5HT8KY9M9PLZR6M3SLUZ1R1,177,0.305001535271,0.493612808469,0.65849625896,0.406841658435,0,1,271,False,1,2,1,180,0,1,50,56,0.2333333333333333,363.61582319182065
0,37UEWGM5HT8KY9M9PLZR6M3SLUZ1R1,178,0.33002181643,0.469098789392,0.665879712377,0.388386596992,0,1,272,False,0,1,1,203,1,1,50,56,0.2333333333333333,363.61582319182065
0,37UEWGM5HT8KY9M9PLZR6M3SLUZ1R1,179,0.325471872487,0.471028202714,0.645318430493,0.362128500137,0,1,270,True,0,1,0,227,0,1,50,56,0.2333333333333333,363.61582319182065
0,37UEWGM5HT8KY9M9PLZR6M3SLUZ1R1,180,0.302119409191,0.487451370839,0.634210371211,0.361006423102,0,1,247,True,1,2,0,107,0,1,50,56,0.2333333333333333,363.61582319182065
0,37UEWGM5HT8KY9M9PLZR6M3SLUZ1R1,181,0.319687136795,0.53025520447,0.645170330557,0.344822759162,0,1,686,True,1,2,0,427,0,1,50,56,0.2333333333333333,363.61582319182065
0,37UEWGM5HT8KY9M9PLZR6M3SLUZ1R1,182,0.340622623277,0.558125328014,0.642579369694,0.339710510642,1,2,302,True,1,2,1,155,0,1,50,56,0.2333333333333333,363.61582319182065
0,37UEWGM5HT8KY9M9PLZR6M3SLUZ1R1,183,0.326804303598,0.549400692329,0.592456717601,0.330638649531,1,2,175,True,0,1,1,140,0,1,50,56,0.2333333333333333,363.61582319182065
0,37UEWGM5HT8KY9M9PLZR6M3SLUZ1R1,184,0.330197767995,0.557380521394,0.611489817058,0.338332086986,0,1,247,False,0,1,1,268,1,1,50,56,0.2333333333333333,363.61582319182065
0,37UEWGM5HT8KY9M9PLZR6M3SLUZ1R1,185,0.305779190282,0.583624605417,0.613460177028,0.345801403967,0,1,232,False,0,1,1,195,1,1,50,56,0.2333333333333333,363.61582319182065
0,37UEWGM5HT8KY9M9PLZR6M3SLUZ1R1,186,0.301883092183,0.622316346564,0.630140532196,0.38159969755,0,1,280,True,0,1,0,211,0,1,50,56,0.2333333333333333,363.61582319182065
0,37UEWGM5HT8KY9M9PLZR6M3SLUZ1R1,187,0.312907636544,0.586220534512,0.613095018461,0.400276008253,0,1,551,False,1,2,1,277,1,1,50,56,0.2333333333333333,363.61582319182065
0,37UEWGM5HT8KY9M9PLZR6M3SLUZ1R1,188,0.352377051111,0.586986758336,0.572784351066,0.344680966765,0,1,304,True,1,2,0,261,0,1,50,56,0.2333333333333333,363.61582319182065
0,37UEWGM5HT8KY9M9PLZR6M3SLUZ1R1,189,0.344876724602,0.638157165375,0.581975754788,0.351436314975,0,1,239,True,0,1,0,300,1,1,50,56,0.2333333333333333,363.61582319182065
0,37UEWGM5HT8KY9M9PLZR6M3SLUZ1R1,190,0.392391798853,0.667164906322,0.552605566262,0.325587875814,0,1,271,False,0,1,1,340,0,1,50,56,0.2333333333333333,363.61582319182065
0,37UEWGM5HT8KY9M9PLZR6M3SLUZ1R1,191,0.412042040593,0.644357666507,0.547124920533,0.329218442292,0,1,270,True,0,1,0,300,1,1,50,56,0.2333333333333333,363.61582319182065
0,37UEWGM5HT8KY9M9PLZR6M3SLUZ1R1,192,0.379965792173,0.664566689272,0.570912410757,0.325998113065,0,1,319,True,0,1,0,372,0,1,50,56,0.2333333333333333,363.61582319182065
0,37UEWGM5HT8KY9M9PLZR6M3SLUZ1R1,193,0.389664565012,0.664375095335,0.55849233557,0.366447813253,0,1,278,True,1,2,0,500,0,1,50,56,0.2333333333333333,363.61582319182065
0,37UEWGM5HT8KY9M9PLZR6M3SLUZ1R1,194,0.395044614715,0.72543228023,0.519210011433,0.355126527027,0,1,303,True,0,1,0,620,0,1,50,56,0.2333333333333333,363.61582319182065
0,37UEWGM5HT8KY9M9PLZR6M3SLUZ1R1,195,0.383792753181,0.712424710636,0.479336007569,0.387209370348,1,2,142,True,1,2,1,292,1,1,50,56,0.2333333333333333,363.61582319182065
0,37UEWGM5HT8KY9M9PLZR6M3SLUZ1R1,196,0.37306997392,0.734290462084,0.460441785745,0.375364189949,1,2,319,False,1,2,0,316,1,1,50,56,0.2333333333333333,363.61582319182065
0,37UEWGM5HT8KY9M9PLZR6M3SLUZ1R1,197,0.440370694377,0.747560565418,0.460608262771,0.410302321559,1,2,302,False,1,2,0,140,1,1,50,56,0.2333333333333333,363.61582319182065
0,37UEWGM5HT8KY9M9PLZR6M3SLUZ1R1,198,0.471404410712,0.7366478523,0.467873357418,0.375276531813,1,2,368,True,1,2,1,243,0,1,50,56,0.2333333333333333,363.61582319182065
0,37UEWGM5HT8KY9M9PLZR6M3SLUZ1R1,199,0.487117657235,0.736005509776,0.446751124312,0.402649308091,1,2,166,True,1,2,1,84,1,1,50,56,0.2333333333333333,363.61582319182065
1,3Q8GYXHFEP2FGPY98BB8KHHNX42C5F,0,0.742621470936,0.272532468277,0.71669309271,0.479056705494,1,2,2222,True,0,1,1,1719,1,1,37,29,0.3333333333333333,309.5102626619176
1,3Q8GYXHFEP2FGPY98BB8KHHNX42C5F,1,0.714054437546,0.28956974681,0.711770360008,0.456458310278,1,2,956,True,0,1,1,749,0,1,37,29,0.3333333333333333,309.5102626619176
1,3Q8GYXHFEP2FGPY98BB8KHHNX42C5F,2,0.708947909512,0.346194423994,0.714402963935,0.46593679168,1,2,662,True,0,1,1,1029,1,1,37,29,0.3333333333333333,309.5102626619176
1,3Q8GYXHFEP2FGPY98BB8KHHNX42C5F,3,0.732490347346,0.339447868367,0.704013189795,0.385709276536,0,1,1352,True,0,1,0,1633,1,1,37,29,0.3333333333333333,309.5102626619176
1,3Q8GYXHFEP2FGPY98BB8KHHNX42C5F,4,0.717249489061,0.407606752597,0.721518196281,0.422206287292,0,1,567,False,0,1,1,826,1,1,37,29,0.3333333333333333,309.5102626619176
1,3Q8GYXHFEP2FGPY98BB8KHHNX42C5F,5,0.6630928988,0.45511262148,0.721181153667,0.404565489562,0,1,465,True,0,1,0,957,1,1,37,29,0.3333333333333333,309.5102626619176
1,3Q8GYXHFEP2FGPY98BB8KHHNX42C5F,6,0.672738831011,0.474384545792,0.743141113631,0.381869747044,1,2,370,True,0,1,1,675,0,1,37,29,0.3333333333333333,309.5102626619176
1,3Q8GYXHFEP2FGPY98BB8KHHNX42C5F,7,0.668045339679,0.480846588706,0.731564879728,0.405588632962,0,1,692,True,0,1,0,630,1,1,37,29,0.3333333333333333,309.5102626619176
1,3Q8GYXHFEP2FGPY98BB8KHHNX42C5F,8,0.669015262022,0.513473956177,0.728107518412,0.40687276212,0,1,374,False,0,1,1,732,1,1,37,29,0.3333333333333333,309.5102626619176
1,3Q8GYXHFEP2FGPY98BB8KHHNX42C5F,9,0.64671120204,0.526146178979,0.730336497662,0.408509497299,0,1,371,True,0,1,0,903,1,1,37,29,0.3333333333333333,309.5102626619176
1,3Q8GYXHFEP2FGPY98BB8KHHNX42C5F,10,0.607944402512,0.543315429143,0.724719472529,0.381349699905,0,1,592,True,1,2,0,652,1,1,37,29,0.3333333333333333,309.5102626619176
1,3Q8GYXHFEP2FGPY98BB8KHHNX42C5F,11,0.623056850805,0.526648888826,0.697371744877,0.395908106836,0,1,485,True,1,2,0,696,0,1,37,29,0.3333333333333333,309.5102626619176
1,3Q8GYXHFEP2FGPY98BB8KHHNX42C5F,12,0.607721669601,0.554902084053,0.689983332344,0.380218517946,0,1,309,True,0,1,0,393,1,1,37,29,0.3333333333333333,309.5102626619176
1,3Q8GYXHFEP2FGPY98BB8KHHNX42C5F,13,0.642416333717,0.576955978171,0.708708278957,0.341168637042,0,1,433,True,0,1,0,379,1,1,37,29,0.3333333333333333,309.5102626619176
1,3Q8GYXHFEP2FGPY98BB8KHHNX42C5F,14,0.614010351756,0.604034382831,0.732507162725,0.350118401239,0,1,404,True,0,1,0,335,1,1,37,29,0.3333333333333333,309.5102626619176
1,3Q8GYXHFEP2FGPY98BB8KHHNX42C5F,15,0.680413307829,0.594441283734,0.716261232916,0.355798838571,0,1,471,True,0,1,0,363,1,1,37,29,0.3333333333333333,309.5102626619176
1,3Q8GYXHFEP2FGPY98BB8KHHNX42C5F,16,0.67102435131,0.588086274504,0.730069464085,0.330877938548,0,1,364,True,0,1,0,311,1,1,37,29,0.3333333333333333,309.5102626619176
1,3Q8GYXHFEP2FGPY98BB8KHHNX42C5F,17,0.718432568922,0.568204732239,0.686176168762,0.309765161617,0,1,399,True,0,1,0,331,1,1,37,29,0.3333333333333333,309.5102626619176
1,3Q8GYXHFEP2FGPY98BB8KHHNX42C5F,18,0.713141823764,0.57865702431,0.696062430132,0.367234912443,0,1,360,False,0,1,1,375,1,1,37,29,0.3333333333333333,309.5102626619176
1,3Q8GYXHFEP2FGPY98BB8KHHNX42C5F,19,0.707002308783,0.572723191735,0.701021460261,0.344983910079,0,1,370,True,0,1,0,527,1,1,37,29,0.3333333333333333,309.5102626619176
1,3Q8GYXHFEP2FGPY98BB8KHHNX42C5F,20,0.697338532194,0.583247904064,0.713862580976,0.369623913462,0,1,402,True,0,1,0,386,1,1,37,29,0.3333333333333333,309.5102626619176
1,3Q8GYXHFEP2FGPY98BB8KHHNX42C5F,21,0.683738606376,0.577831132902,0.720175638244,0.347221826515,0,1,446,True,0,1,0,369,1,1,37,29,0.3333333333333333,309.5102626619176
1,3Q8GYXHFEP2FGPY98BB8KHHNX42C5F,22,0.723666933292,0.594247039033,0.678758987791,0.350429018148,0,1,404,False,0,1,1,335,1,1,37,29,0.3333333333333333,309.5102626619176
1,3Q8GYXHFEP2FGPY98BB8KHHNX42C5F,23,0.722552862976,0.64363551746,0.657672810429,0.358987448701,0,1,356,True,0,1,0,330,0,1,37,29,0.3333333333333333,309.5102626619176
1,3Q8GYXHFEP2FGPY98BB8KHHNX42C5F,24,0.729163712473,0.664465485514,0.659189229643,0.373726090068,0,1,353,True,0,1,0,352,1,1,37,29,0.3333333333333333,309.5102626619176
1,3Q8GYXHFEP2FGPY98BB8KHHNX42C5F,25,0.736463051067,0.667677417009,0.633789239965,0.388062858383,0,1,369,True,0,1,0,318,1,1,37,29,0.3333333333333333,309.5102626619176
1,3Q8GYXHFEP2FGPY98BB8KHHNX42C5F,26,0.743521712443,0.680410974005,0.603566014102,0.365819318125,0,1,322,False,0,1,1,480,0,1,37,29,0.3333333333333333,309.5102626619176
1,3Q8GYXHFEP2FGPY98BB8KHHNX42C5F,27,0.732307752744,0.688129657145,0.639730342634,0.324473032481,1,2,1029,True,0,1,1,1073,0,1,37,29,0.3333333333333333,309.5102626619176
1,3Q8GYXHFEP2FGPY98BB8KHHNX42C5F,28,0.736811669823,0.670863418611,0.612317833639,0.359797741125,1,2,329,True,1,2,1,593,0,1,37,29,0.3333333333333333,309.5102626619176
1,3Q8GYXHFEP2FGPY98BB8KHHNX42C5F,29,0.743345059239,0.664878919109,0.616259626176,0.316896486661,1,2,366,True,1,2,1,401,1,1,37,29,0.3333333333333333,309.5102626619176
1,3Q8GYXHFEP2FGPY98BB8KHHNX42C5F,30,0.746265616093,0.667204230628,0.57959946249,0.31335500672,1,2,347,False,1,2,0,425,1,1,37,29,0.3333333333333333,309.5102626619176
1,3Q8GYXHFEP2FGPY98BB8KHHNX42C5F,31,0.723199980689,0.64267698388,0.581017754762,0.308527186817,1,2,675,True,1,2,1,2433,0,1,37,29,0.3333333333333333,309.5102626619176
1,3Q8GYXHFEP2FGPY98BB8KHHNX42C5F,32,0.694695825122,0.703101902478,0.568902198934,0.290605018323,0,1,335,True,0,1,0,677,1,1,37,29,0.3333333333333333,309.5102626619176
1,3Q8GYXHFEP2FGPY98BB8KHHNX42C5F,33,0.67334094861,0.696419411433,0.578031478635,0.309599444775,0,1,375,True,0,1,0,459,1,1,37,29,0.3333333333333333,309.5102626619176
1,3Q8GYXHFEP2FGPY98BB8KHHNX42C5F,34,0.652335091449,0.70438345769,0.59605536339,0.279470956194,0,1,353,True,0,1,0,471,0,1,37,29,0.3333333333333333,309.5102626619176
1,3Q8GYXHFEP2FGPY98BB8KHHNX42C5F,35,0.657451953133,0.683837920999,0.568078580687,0.27404823551,1,2,421,True,0,1,1,800,0,1,37,29,0.3333333333333333,309.5102626619176
1,3Q8GYXHFEP2FGPY98BB8KHHNX42C5F,36,0.675374672435,0.712212599172,0.561377542482,0.284355796866,1,2,684,True,1,2,1,1589,0,1,37,29,0.3333333333333333,309.5102626619176
1,3Q8GYXHFEP2FGPY98BB8KHHNX42C5F,37,0.671284094134,0.716259324014,0.566258884749,0.269938039503,0,1,398,True,1,2,0,908,1,1,37,29,0.3333333333333333,309.5102626619176
1,3Q8GYXHFEP2FGPY98BB8KHHNX42C5F,38,0.654751036327,0.744322707512,0.618638427368,0.294912002446,0,1,376,True,1,2,0,438,1,1,37,29,0.3333333333333333,309.5102626619176
1,3Q8GYXHFEP2FGPY98BB8KHHNX42C5F,39,0.660675754074,0.685611640794,0.605892201903,0.270200805787,0,1,418,True,1,2,0,488,1,1,37,29,0.3333333333333333,309.5102626619176
1,3Q8GYXHFEP2FGPY98BB8KHHNX42C5F,40,0.697626230879,0.729448779435,0.608670557774,0.256991528728,0,1,351,True,1,2,0,586,0,1,37,29,0.3333333333333333,309.5102626619176
1,3Q8GYXHFEP2FGPY98BB8KHHNX42C5F,41,0.726645073604,0.717332378805,0.603307527487,0.277574736158,0,1,318,False,1,2,1,2100,0,1,37,29,0.3333333333333333,309.5102626619176
1,3Q8GYXHFEP2FGPY98BB8KHHNX42C5F,42,0.710785605187,0.73572032618,0.603035835786,0.300463039776,0,1,718,True,1,2,0,1529,1,1,37,29,0.3333333333333333,309.5102626619176
1,3Q8GYXHFEP2FGPY98BB8KHHNX42C5F,43,0.690886938659,0.740720643321,0.608800181298,0.305367115844,0,1,377,True,1,2,0,650,0,1,37,29,0.3333333333333333,309.5102626619176
1,3Q8GYXHFEP2FGPY98BB8KHHNX42C5F,44,0.682073026999,0.726886066092,0.597549552128,0.298118154697,0,1,366,False,0,1,1,449,0,1,37,29,0.3333333333333333,309.5102626619176
1,3Q8GYXHFEP2FGPY98BB8KHHNX42C5F,45,0.692167085493,0.701363725585,0.639345636163,0.368054277054,0,1,905,False,1,2,1,1595,0,1,37,29,0.3333333333333333,309.5102626619176
1,3Q8GYXHFEP2FGPY98BB8KHHNX42C5F,46,0.726979525113,0.685298681928,0.665140217735,0.392550601145,0,1,311,True,0,1,0,454,0,1,37,29,0.3333333333333333,309.5102626619176
1,3Q8GYXHFEP2FGPY98BB8KHHNX42C5F,47,0.734914379351,0.68153045423,0.667316355854,0.380373869228,0,1,1661,True,1,2,0,1122,1,1,37,29,0.3333333333333333,309.5102626619176
1,3Q8GYXHFEP2FGPY98BB8KHHNX42C5F,48,0.714865063908,0.653994687644,0.672014216512,0.367354016553,0,1,433,True,1,2,0,510,1,1,37,29,0.3333333333333333,309.5102626619176
1,3Q8GYXHFEP2FGPY98BB8KHHNX42C5F,49,0.713201331899,0.676140093398,0.674811303487,0.344411485936,0,1,385,True,1,2,0,508,1,1,37,29,0.3333333333333333,309.5102626619176
1,3Q8GYXHFEP2FGPY98BB8KHHNX42C5F,50,0.73310943824,0.669322372281,0.662652287375,0.29720573873,0,1,387,False,0,1,1,2269,0,1,37,29,0.3333333333333333,309.5102626619176
1,3Q8GYXHFEP2FGPY98BB8KHHNX42C5F,51,0.700235093867,0.701682886358,0.677069605794,0.332317401302,0,1,365,True,1,2,0,1504,1,1,37,29,0.3333333333333333,309.5102626619176
1,3Q8GYXHFEP2FGPY98BB8KHHNX42C5F,52,0.681608516568,0.679629779822,0.681276831864,0.288342858569,0,1,377,True,1,2,0,462,1,1,37,29,0.3333333333333333,309.5102626619176
1,3Q8GYXHFEP2FGPY98BB8KHHNX42C5F,53,0.611253601709,0.660626826063,0.70952385264,0.330572173264,0,1,362,False,1,2,1,427,0,1,37,29,0.3333333333333333,309.5102626619176
1,3Q8GYXHFEP2FGPY98BB8KHHNX42C5F,54,0.66703777187,0.672946186741,0.737926106414,0.317011361338,0,1,322,True,1,2,0,841,0,1,37,29,0.3333333333333333,309.5102626619176
1,3Q8GYXHFEP2FGPY98BB8KHHNX42C5F,55,0.663328365422,0.668736431958,0.720239436976,0.329794236079,1,2,380,True,0,1,1,1570,1,1,37,29,0.3333333333333333,309.5102626619176
1,3Q8GYXHFEP2FGPY98BB8KHHNX42C5F,56,0.612291779763,0.64812962841,0.714275483314,0.285713898761,1,2,338,False,1,2,0,1318,1,1,37,29,0.3333333333333333,309.5102626619176
1,3Q8GYXHFEP2FGPY98BB8KHHNX42C5F,57,0.601996752534,0.690302803125,0.676016484568,0.271887355155,1,2,565,True,0,1,1,1032,0,1,37,29,0.3333333333333333,309.5102626619176
1,3Q8GYXHFEP2FGPY98BB8KHHNX42C5F,58,0.613291721538,0.709488073072,0.661531678887,0.299130690859,1,2,458,True,0,1,1,1444,0,1,37,29,0.3333333333333333,309.5102626619176
1,3Q8GYXHFEP2FGPY98BB8KHHNX42C5F,59,0.576180172387,0.710892275986,0.652653677393,0.314466701606,0,1,565,True,1,2,0,1552,1,1,37,29,0.3333333333333333,309.5102626619176
1,3Q8GYXHFEP2FGPY98BB8KHHNX42C5F,60,0.55143212238,0.6853037472,0.679903912304,0.298421798989,0,1,498,True,1,2,0,471,1,1,37,29,0.3333333333333333,309.5102626619176
1,3Q8GYXHFEP2FGPY98BB8KHHNX42C5F,61,0.552884156424,0.712766267125,0.703638809173,0.32433324524,0,1,452,True,1,2,0,671,0,1,37,29,0.3333333333333333,309.5102626619176
1,3Q8GYXHFEP2FGPY98BB8KHHNX42C5F,62,0.523932583535,0.711521035133,0.679767370885,0.337888246509,0,1,467,False,0,1,1,2329,0,1,37,29,0.3333333333333333,309.5102626619176
1,3Q8GYXHFEP2FGPY98BB8KHHNX42C5F,63,0.463568418654,0.711676676089,0.654057416911,0.301245991201,0,1,511,False,0,1,1,862,1,1,37,29,0.3333333333333333,309.5102626619176
1,3Q8GYXHFEP2FGPY98BB8KHHNX42C5F,64,0.512684775876,0.72135123212,0.608900413955,0.307315993953,0,1,519,True,1,2,0,1201,1,1,37,29,0.3333333333333333,309.5102626619176
1,3Q8GYXHFEP2FGPY98BB8KHHNX42C5F,65,0.4789698412,0.699848934728,0.614568831315,0.250436393356,0,1,687,True,1,2,0,449,1,1,37,29,0.3333333333333333,309.5102626619176
1,3Q8GYXHFEP2FGPY98BB8KHHNX42C5F,66,0.4762029504,0.694385754211,0.632767436931,0.284111851193,0,1,408,True,1,2,0,504,1,1,37,29,0.3333333333333333,309.5102626619176
1,3Q8GYXHFEP2FGPY98BB8KHHNX42C5F,67,0.507081830395,0.677726367322,0.626004736862,0.317292542624,0,1,453,False,1,2,1,518,1,1,37,29,0.3333333333333333,309.5102626619176
1,3Q8GYXHFEP2FGPY98BB8KHHNX42C5F,68,0.530878795539,0.655313569542,0.603059838512,0.35399122944,0,1,396,True,1,2,0,726,0,1,37,29,0.3333333333333333,309.5102626619176
1,3Q8GYXHFEP2FGPY98BB8KHHNX42C5F,69,0.515056866669,0.621614881021,0.58701353054,0.316633763971,0,1,337,True,1,2,0,520,0,1,37,29,0.3333333333333333,309.5102626619176
1,3Q8GYXHFEP2FGPY98BB8KHHNX42C5F,70,0.564088952011,0.605891511566,0.597831961545,0.302344162838,0,1,354,True,0,1,0,635,1,1,37,29,0.3333333333333333,309.5102626619176
1,3Q8GYXHFEP2FGPY98BB8KHHNX42C5F,71,0.54449084523,0.577146163723,0.59199090907,0.331577263471,0,1,387,True,0,1,0,363,0,1,37,29,0.3333333333333333,309.5102626619176
1,3Q8GYXHFEP2FGPY98BB8KHHNX42C5F,72,0.566979079908,0.605338027274,0.564635273227,0.330100786862,0,1,760,True,0,1,0,417,0,1,37,29,0.3333333333333333,309.5102626619176
1,3Q8GYXHFEP2FGPY98BB8KHHNX42C5F,73,0.551299433382,0.607923806021,0.548505305566,0.309216084463,1,2,349,False,1,2,0,1672,0,1,37,29,0.3333333333333333,309.5102626619176
1,3Q8GYXHFEP2FGPY98BB8KHHNX42C5F,74,0.542745978,0.589975468932,0.538285961481,0.334258316899,1,2,300,True,1,2,1,1232,1,1,37,29,0.3333333333333333,309.5102626619176
1,3Q8GYXHFEP2FGPY98BB8KHHNX42C5F,75,0.561497649091,0.630898581991,0.556776422344,0.331123452327,1,2,532,True,1,2,1,517,1,1,37,29,0.3333333333333333,309.5102626619176
1,3Q8GYXHFEP2FGPY98BB8KHHNX42C5F,76,0.589017199812,0.627952603444,0.550030110147,0.346628080055,1,2,364,True,1,2,1,427,0,1,37,29,0.3333333333333333,309.5102626619176
1,3Q8GYXHFEP2FGPY98BB8KHHNX42C5F,77,0.584186560288,0.579581394278,0.557708870011,0.372955434066,1,2,375,False,1,2,0,370,1,1,37,29,0.3333333333333333,309.5102626619176
1,3Q8GYXHFEP2FGPY98BB8KHHNX42C5F,78,0.663978965977,0.603348757443,0.596450133085,0.335534554466,1,2,509,True,1,2,1,502,0,1,37,29,0.3333333333333333,309.5102626619176
1,3Q8GYXHFEP2FGPY98BB8KHHNX42C5F,79,0.685488538842,0.661324828013,0.628562826405,0.317508487146,1,2,363,True,0,1,1,496,0,1,37,29,0.3333333333333333,309.5102626619176
1,3Q8GYXHFEP2FGPY98BB8KHHNX42C5F,80,0.689540608913,0.642447759192,0.639191253292,0.280146174731,0,1,405,True,1,2,0,533,1,1,37,29,0.3333333333333333,309.5102626619176
1,3Q8GYXHFEP2FGPY98BB8KHHNX42C5F,81,0.710426203535,0.655563840418,0.647453282745,0.260992840152,0,1,458,False,0,1,1,1824,0,1,37,29,0.3333333333333333,309.5102626619176
1,3Q8GYXHFEP2FGPY98BB8KHHNX42C5F,82,0.69084005601,0.626748569246,0.618006356653,0.265458837477,0,1,383,False,1,2,1,1725,0,1,37,29,0.3333333333333333,309.5102626619176
1,3Q8GYXHFEP2FGPY98BB8KHHNX42C5F,83,0.66045000665,0.589118902235,0.582373787352,0.266296660997,0,1,445,True,1,2,0,585,1,1,37,29,0.3333333333333333,309.5102626619176
1,3Q8GYXHFEP2FGPY98BB8KHHNX42C5F,84,0.692987016621,0.603946174416,0.594937517543,0.304179889849,0,1,600,False,0,1,1,2074,1,1,37,29,0.3333333333333333,309.5102626619176
1,3Q8GYXHFEP2FGPY98BB8KHHNX42C5F,85,0.742301951068,0.638028136197,0.598561432857,0.339665013074,0,1,463,True,1,2,0,939,1,1,37,29,0.3333333333333333,309.5102626619176
1,3Q8GYXHFEP2FGPY98BB8KHHNX42C5F,86,0.686698795879,0.686641888378,0.563299184018,0.332946702685,0,1,482,True,1,2,0,564,1,1,37,29,0.3333333333333333,309.5102626619176
1,3Q8GYXHFEP2FGPY98BB8KHHNX42C5F,87,0.690926289258,0.664793565833,0.567644663702,0.350846869979,0,1,435,False,0,1,1,2197,0,1,37,29,0.3333333333333333,309.5102626619176
1,3Q8GYXHFEP2FGPY98BB8KHHNX42C5F,88,0.639906407079,0.672512670635,0.552287929984,0.382400271729,0,1,328,True,1,2,0,536,1,1,37,29,0.3333333333333333,309.5102626619176
1,3Q8GYXHFEP2FGPY98BB8KHHNX42C5F,89,0.599526089753,0.702037914288,0.551499978304,0.385810615866,0,1,394,True,1,2,0,554,1,1,37,29,0.3333333333333333,309.5102626619176
1,3Q8GYXHFEP2FGPY98BB8KHHNX42C5F,90,0.571792989341,0.691019576673,0.521950006971,0.435034807193,0,1,636,True,1,2,0,637,1,1,37,29,0.3333333333333333,309.5102626619176
1,3Q8GYXHFEP2FGPY98BB8KHHNX42C5F,91,0.584683137779,0.706512645771,0.51122706761,0.445767985761,0,1,447,True,1,2,0,768,1,1,37,29,0.3333333333333333,309.5102626619176
1,3Q8GYXHFEP2FGPY98BB8KHHNX42C5F,92,0.554861172246,0.711737596545,0.492981519726,0.440683358106,0,1,498,True,1,2,0,526,1,1,37,29,0.3333333333333333,309.5102626619176
1,3Q8GYXHFEP2FGPY98BB8KHHNX42C5F,93,0.56691541983,0.724832553503,0.484850092769,0.421860460474,0,1,466,True,1,2,0,453,0,1,37,29,0.3333333333333333,309.5102626619176
1,3Q8GYXHFEP2FGPY98BB8KHHNX42C5F,94,0.566678637331,0.720026008902,0.464133901312,0.41295891552,0,1,478,True,1,2,0,506,0,1,37,29,0.3333333333333333,309.5102626619176
1,3Q8GYXHFEP2FGPY98BB8KHHNX42C5F,95,0.526879516376,0.731858231709,0.476966682047,0.397678154404,0,1,302,False,1,2,1,1548,0,1,37,29,0.3333333333333333,309.5102626619176
1,3Q8GYXHFEP2FGPY98BB8KHHNX42C5F,96,0.495215171763,0.724235293032,0.515579848533,0.441247188452,0,1,796,True,0,1,0,1435,0,1,37,29,0.3333333333333333,309.5102626619176
1,3Q8GYXHFEP2FGPY98BB8KHHNX42C5F,97,0.451702131943,0.722808342847,0.534160534675,0.393018126972,1,2,295,True,0,1,1,1120,1,1,37,29,0.3333333333333333,309.5102626619176
1,3Q8GYXHFEP2FGPY98BB8KHHNX42C5F,98,0.472061866997,0.665813203964,0.484894662984,0.383038572744,1,2,376,False,0,1,0,447,0,1,37,29,0.3333333333333333,309.5102626619176
1,3Q8GYXHFEP2FGPY98BB8KHHNX42C5F,99,0.44047725176,0.677258434574,0.482475294507,0.368141735434,1,2,348,False,1,2,0,2227,1,1,37,29,0.3333333333333333,309.5102626619176
1,3Q8GYXHFEP2FGPY98BB8KHHNX42C5F,100,0.465939039681,0.675360161858,0.477210773749,0.392195785011,1,2,352,False,1,2,0,1392,1,1,37,29,0.3333333333333333,309.5102626619176
1,3Q8GYXHFEP2FGPY98BB8KHHNX42C5F,101,0.484780332161,0.725432311224,0.488300642483,0.393341274419,1,2,529,True,-1,2,1,2501,-1,1,37,29,0.3333333333333333,309.5102626619176
1,3Q8GYXHFEP2FGPY98BB8KHHNX42C5F,102,0.483232027022,0.713118198543,0.510764901989,0.382117662374,1,2,482,True,1,2,1,435,1,1,37,29,0.3333333333333333,309.5102626619176
1,3Q8GYXHFEP2FGPY98BB8KHHNX42C5F,103,0.487664781079,0.746520841043,0.488735788724,0.354687213322,1,2,667,False,1,2,0,329,1,1,37,29,0.3333333333333333,309.5102626619176
1,3Q8GYXHFEP2FGPY98BB8KHHNX42C5F,104,0.466196046634,0.738623462929,0.484563566009,0.359013680846,1,2,386,True,1,2,1,788,1,1,37,29,0.3333333333333333,309.5102626619176
1,3Q8GYXHFEP2FGPY98BB8KHHNX42C5F,105,0.442305640081,0.735684662005,0.457603870736,0.422503378505,1,2,319,True,1,2,1,412,0,1,37,29,0.3333333333333333,309.5102626619176
1,3Q8GYXHFEP2FGPY98BB8KHHNX42C5F,106,0.431291039251,0.737970405597,0.474213679147,0.440406871436,1,2,319,True,1,2,1,330,0,1,37,29,0.3333333333333333,309.5102626619176
1,3Q8GYXHFEP2FGPY98BB8KHHNX42C5F,107,0.411758552591,0.726683838125,0.424416267289,0.437138352581,1,2,316,True,0,1,1,570,0,1,37,29,0.3333333333333333,309.5102626619176
1,3Q8GYXHFEP2FGPY98BB8KHHNX42C5F,108,0.426170150128,0.716216452261,0.437737338122,0.394549101032,0,1,401,True,1,2,0,450,0,1,37,29,0.3333333333333333,309.5102626619176
1,3Q8GYXHFEP2FGPY98BB8KHHNX42C5F,109,0.459510607636,0.734927828656,0.409597477729,0.408865363166,0,1,313,True,0,1,0,464,1,1,37,29,0.3333333333333333,309.5102626619176
1,3Q8GYXHFEP2FGPY98BB8KHHNX42C5F,110,0.427067584609,0.687396330944,0.422055811318,0.420048706351,0,1,321,True,0,1,0,301,0,1,37,29,0.3333333333333333,309.5102626619176
1,3Q8GYXHFEP2FGPY98BB8KHHNX42C5F,111,0.396708940978,0.671869621097,0.433717704758,0.409536015214,0,1,447,True,0,1,0,595,0,1,37,29,0.3333333333333333,309.5102626619176
1,3Q8GYXHFEP2FGPY98BB8KHHNX42C5F,112,0.392163878606,0.674074699172,0.421056076456,0.417970716472,0,1,312,True,1,2,0,1005,0,1,37,29,0.3333333333333333,309.5102626619176
1,3Q8GYXHFEP2FGPY98BB8KHHNX42C5F,113,0.405190010723,0.621025368561,0.435236166576,0.408741840632,1,2,311,False,1,2,0,1717,1,1,37,29,0.3333333333333333,309.5102626619176
1,3Q8GYXHFEP2FGPY98BB8KHHNX42C5F,114,0.438900538552,0.653627324378,0.436495632727,0.413355976541,1,2,395,False,1,2,0,648,0,1,37,29,0.3333333333333333,309.5102626619176
1,3Q8GYXHFEP2FGPY98BB8KHHNX42C5F,115,0.466364070331,0.639706334825,0.420982311789,0.37690224461,1,2,326,False,1,2,0,1104,0,1,37,29,0.3333333333333333,309.5102626619176
1,3Q8GYXHFEP2FGPY98BB8KHHNX42C5F,116,0.44593666449,0.664991972369,0.444372392431,0.369366843978,1,2,325,True,1,2,1,1367,0,1,37,29,0.3333333333333333,309.5102626619176
1,3Q8GYXHFEP2FGPY98BB8KHHNX42C5F,117,0.412733194721,0.661210229012,0.483239814095,0.329894679932,1,2,325,False,0,1,0,1268,1,1,37,29,0.3333333333333333,309.5102626619176
1,3Q8GYXHFEP2FGPY98BB8KHHNX42C5F,118,0.431345823754,0.653591919012,0.468808732687,0.333441714697,1,2,322,True,0,1,1,731,1,1,37,29,0.3333333333333333,309.5102626619176
1,3Q8GYXHFEP2FGPY98BB8KHHNX42C5F,119,0.447208271084,0.62713216337,0.475007496911,0.32802780441,1,2,363,True,0,1,1,419,0,1,37,29,0.3333333333333333,309.5102626619176
1,3Q8GYXHFEP2FGPY98BB8KHHNX42C5F,120,0.504181576761,0.598908450997,0.515211526458,0.320161421711,1,2,331,False,1,2,0,1267,1,1,37,29,0.3333333333333333,309.5102626619176
1,3Q8GYXHFEP2FGPY98BB8KHHNX42C5F,121,0.538685689494,0.59872734267,0.581245967994,0.326761785411,1,2,511,True,0,1,1,951,1,1,37,29,0.3333333333333333,309.5102626619176
1,3Q8GYXHFEP2FGPY98BB8KHHNX42C5F,122,0.545842916492,0.565631827948,0.572375519669,0.349220564181,1,2,350,True,0,1,1,490,1,1,37,29,0.3333333333333333,309.5102626619176
1,3Q8GYXHFEP2FGPY98BB8KHHNX42C5F,123,0.534424600245,0.575336677774,0.589370511578,0.317026148602,1,2,375,False,0,1,0,425,0,1,37,29,0.3333333333333333,309.5102626619176
1,3Q8GYXHFEP2FGPY98BB8KHHNX42C5F,124,0.526371932117,0.577041141149,0.5830435132,0.304210055249,1,2,365,True,0,1,1,522,1,1,37,29,0.3333333333333333,309.5102626619176
1,3Q8GYXHFEP2FGPY98BB8KHHNX42C5F,125,0.49512953076,0.52563292561,0.545587063314,0.312630586025,1,2,414,False,1,2,0,1231,1,1,37,29,0.3333333333333333,309.5102626619176
1,3Q8GYXHFEP2FGPY98BB8KHHNX42C5F,126,0.530068526255,0.510034012006,0.577867996947,0.29247870187,1,2,489,True,0,1,1,546,1,1,37,29,0.3333333333333333,309.5102626619176
1,3Q8GYXHFEP2FGPY98BB8KHHNX42C5F,127,0.521176469857,0.476556608777,0.587986796524,0.287512284603,1,2,832,True,0,1,1,808,1,1,37,29,0.3333333333333333,309.5102626619176
1,3Q8GYXHFEP2FGPY98BB8KHHNX42C5F,128,0.517407173469,0.451511907077,0.63486949102,0.272527687021,1,2,1084,True,0,1,1,494,1,1,37,29,0.3333333333333333,309.5102626619176
1,3Q8GYXHFEP2FGPY98BB8KHHNX42C5F,129,0.519013950795,0.441926101218,0.638098815725,0.259425093522,1,2,399,False,1,2,0,1132,0,1,37,29,0.3333333333333333,309.5102626619176
1,3Q8GYXHFEP2FGPY98BB8KHHNX42C5F,130,0.498890596703,0.467441570089,0.653874797874,0.255058599684,1,2,314,True,0,1,1,605,1,1,37,29,0.3333333333333333,309.5102626619176
1,3Q8GYXHFEP2FGPY98BB8KHHNX42C5F,131,0.506975099993,0.5138196349,0.723727134143,0.289296114384,1,2,344,True,0,1,1,544,0,1,37,29,0.3333333333333333,309.5102626619176
1,3Q8GYXHFEP2FGPY98BB8KHHNX42C5F,132,0.478373189761,0.515418585011,0.739344280162,0.319696009516,1,2,294,True,0,1,1,479,0,1,37,29,0.3333333333333333,309.5102626619176
1,3Q8GYXHFEP2FGPY98BB8KHHNX42C5F,133,0.464117630012,0.505406846973,0.710796212728,0.358548929167,1,2,305,False,0,1,0,1799,1,1,37,29,0.3333333333333333,309.5102626619176
1,3Q8GYXHFEP2FGPY98BB8KHHNX42C5F,134,0.438161564291,0.512963083972,0.663310280412,0.414164557033,1,2,448,False,0,1,0,919,1,1,37,29,0.3333333333333333,309.5102626619176
1,3Q8GYXHFEP2FGPY98BB8KHHNX42C5F,135,0.437804854271,0.521267445542,0.707140312177,0.381977117266,1,2,478,False,0,1,0,820,0,1,37,29,0.3333333333333333,309.5102626619176
1,3Q8GYXHFEP2FGPY98BB8KHHNX42C5F,136,0.39550576703,0.530734677637,0.722301577653,0.386129965171,1,2,344,True,1,2,1,932,1,1,37,29,0.3333333333333333,309.5102626619176
1,3Q8GYXHFEP2FGPY98BB8KHHNX42C5F,137,0.369825946503,0.529297444232,0.705073970166,0.412192170598,1,2,351,True,1,2,1,430,1,1,37,29,0.3333333333333333,309.5102626619176
1,3Q8GYXHFEP2FGPY98BB8KHHNX42C5F,138,0.340955933434,0.535677091359,0.676049799996,0.397064309229,1,2,398,True,1,2,1,679,1,1,37,29,0.3333333333333333,309.5102626619176
1,3Q8GYXHFEP2FGPY98BB8KHHNX42C5F,139,0.327841930378,0.494485627413,0.67379787808,0.385319942822,1,2,430,True,1,2,1,648,0,1,37,29,0.3333333333333333,309.5102626619176
1,3Q8GYXHFEP2FGPY98BB8KHHNX42C5F,140,0.346949999261,0.50276959175,0.631642167891,0.352071439617,0,1,394,True,0,1,0,1084,1,1,37,29,0.3333333333333333,309.5102626619176
1,3Q8GYXHFEP2FGPY98BB8KHHNX42C5F,141,0.327683547083,0.479498572317,0.588172558354,0.338016967094,0,1,345,True,0,1,0,428,0,1,37,29,0.3333333333333333,309.5102626619176
1,3Q8GYXHFEP2FGPY98BB8KHHNX42C5F,142,0.345778721519,0.463422938754,0.621093596977,0.356575357295,0,1,389,False,1,2,1,516,1,1,37,29,0.3333333333333333,309.5102626619176
1,3Q8GYXHFEP2FGPY98BB8KHHNX42C5F,143,0.364945822642,0.467786950715,0.638775660409,0.387799137668,1,2,604,True,1,2,1,377,0,1,37,29,0.3333333333333333,309.5102626619176
1,3Q8GYXHFEP2FGPY98BB8KHHNX42C5F,144,0.366856198242,0.479262099846,0.638164830174,0.392213022096,1,2,381,True,0,1,1,856,1,1,37,29,0.3333333333333333,309.5102626619176
1,3Q8GYXHFEP2FGPY98BB8KHHNX42C5F,145,0.353443186556,0.456792617563,0.592292922404,0.419555911538,1,2,506,True,0,1,1,411,1,1,37,29,0.3333333333333333,309.5102626619176
1,3Q8GYXHFEP2FGPY98BB8KHHNX42C5F,146,0.301722088337,0.45830036555,0.622835797891,0.375761582739,1,2,338,True,0,1,1,373,1,1,37,29,0.3333333333333333,309.5102626619176
1,3Q8GYXHFEP2FGPY98BB8KHHNX42C5F,147,0.264341556455,0.449775355421,0.662131127511,0.349120033327,1,2,356,False,0,1,0,406,0,1,37,29,0.3333333333333333,309.5102626619176
1,3Q8GYXHFEP2FGPY98BB8KHHNX42C5F,148,0.264668248755,0.494929555671,0.639769434173,0.358401192005,1,2,313,True,0,1,1,553,1,1,37,29,0.3333333333333333,309.5102626619176
1,3Q8GYXHFEP2FGPY98BB8KHHNX42C5F,149,0.30110562558,0.464280328832,0.609903853688,0.377339726515,1,2,454,True,0,1,1,610,1,1,37,29,0.3333333333333333,309.5102626619176
1,3Q8GYXHFEP2FGPY98BB8KHHNX42C5F,150,0.280623215878,0.481986230299,0.626281431716,0.383460733712,1,2,276,True,0,1,1,426,0,1,37,29,0.3333333333333333,309.5102626619176
1,3Q8GYXHFEP2FGPY98BB8KHHNX42C5F,151,0.304683770407,0.502435718544,0.643640302365,0.391815879345,1,2,321,False,0,1,0,679,0,1,37,29,0.3333333333333333,309.5102626619176
1,3Q8GYXHFEP2FGPY98BB8KHHNX42C5F,152,0.283322642867,0.498139442605,0.642128054045,0.352140031719,0,1,351,True,1,2,0,400,1,1,37,29,0.3333333333333333,309.5102626619176
1,3Q8GYXHFEP2FGPY98BB8KHHNX42C5F,153,0.306269030949,0.451614361835,0.654672308956,0.348380129875,0,1,410,True,1,2,0,365,0,1,37,29,0.3333333333333333,309.5102626619176
1,3Q8GYXHFEP2FGPY98BB8KHHNX42C5F,154,0.308778603441,0.402575938955,0.656372423923,0.342612192118,0,1,347,True,1,2,0,454,1,1,37,29,0.3333333333333333,309.5102626619176
1,3Q8GYXHFEP2FGPY98BB8KHHNX42C5F,155,0.33451263543,0.446579202849,0.658542188835,0.357265872674,0,1,377,True,1,2,0,420,0,1,37,29,0.3333333333333333,309.5102626619176
1,3Q8GYXHFEP2FGPY98BB8KHHNX42C5F,156,0.297271386897,0.430236977273,0.63540553159,0.375693693187,1,2,380,True,1,2,1,557,0,1,37,29,0.3333333333333333,309.5102626619176
1,3Q8GYXHFEP2FGPY98BB8KHHNX42C5F,157,0.28858538497,0.452657205597,0.623941677319,0.338900571893,1,2,391,True,0,1,1,575,1,1,37,29,0.3333333333333333,309.5102626619176
1,3Q8GYXHFEP2FGPY98BB8KHHNX42C5F,158,0.25563944793,0.465453983137,0.603769339648,0.360800282578,1,2,311,True,0,1,1,403,1,1,37,29,0.3333333333333333,309.5102626619176
1,3Q8GYXHFEP2FGPY98BB8KHHNX42C5F,159,0.26148909479,0.460071212732,0.606546526811,0.307855002198,1,2,369,True,0,1,1,383,1,1,37,29,0.3333333333333333,309.5102626619176
1,3Q8GYXHFEP2FGPY98BB8KHHNX42C5F,160,0.274099036929,0.459478985881,0.637334141907,0.33532419807,1,2,385,False,1,2,0,901,1,1,37,29,0.3333333333333333,309.5102626619176
1,3Q8GYXHFEP2FGPY98BB8KHHNX42C5F,161,0.307966452014,0.46872058764,0.637873391684,0.34623859314,1,2,416,True,0,1,1,497,1,1,37,29,0.3333333333333333,309.5102626619176
1,3Q8GYXHFEP2FGPY98BB8KHHNX42C5F,162,0.270379620162,0.466356103946,0.646717215096,0.393464062872,1,2,351,True,0,1,1,674,1,1,37,29,0.3333333333333333,309.5102626619176
1,3Q8GYXHFEP2FGPY98BB8KHHNX42C5F,163,0.251737674833,0.479336880963,0.619903246132,0.413261205596,1,2,497,False,1,2,0,1049,0,1,37,29,0.3333333333333333,309.5102626619176
1,3Q8GYXHFEP2FGPY98BB8KHHNX42C5F,164,0.286525398425,0.440569128367,0.665760959524,0.388390710515,1,2,520,True,0,1,1,328,1,1,37,29,0.3333333333333333,309.5102626619176
1,3Q8GYXHFEP2FGPY98BB8KHHNX42C5F,165,0.261801143272,0.465180125042,0.643203603033,0.383915211172,1,2,278,True,0,1,1,386,1,1,37,29,0.3333333333333333,309.5102626619176
1,3Q8GYXHFEP2FGPY98BB8KHHNX42C5F,166,0.272758270544,0.481601358765,0.636703274324,0.398893295312,1,2,362,True,0,1,1,629,1,1,37,29,0.3333333333333333,309.5102626619176
1,3Q8GYXHFEP2FGPY98BB8KHHNX42C5F,167,0.269275042302,0.502893453039,0.650418341444,0.359880215179,1,2,364,False,1,2,0,1034,1,1,37,29,0.3333333333333333,309.5102626619176
1,3Q8GYXHFEP2FGPY98BB8KHHNX42C5F,168,0.321244877244,0.528573132907,0.66957626249,0.376463063499,1,2,341,False,0,1,0,487,1,1,37,29,0.3333333333333333,309.5102626619176
1,3Q8GYXHFEP2FGPY98BB8KHHNX42C5F,169,0.327522928076,0.508532688437,0.657874425455,0.417988749297,1,2,313,False,1,2,0,925,1,1,37,29,0.3333333333333333,309.5102626619176
1,3Q8GYXHFEP2FGPY98BB8KHHNX42C5F,170,0.34872481577,0.521911121289,0.655656229698,0.380266706389,1,2,419,True,1,2,1,576,0,1,37,29,0.3333333333333333,309.5102626619176
1,3Q8GYXHFEP2FGPY98BB8KHHNX42C5F,171,0.336841396031,0.530428789858,0.665971836127,0.435348605431,1,2,298,True,0,1,1,414,1,1,37,29,0.3333333333333333,309.5102626619176
1,3Q8GYXHFEP2FGPY98BB8KHHNX42C5F,172,0.341837444982,0.543180536576,0.641218605426,0.435268405162,1,2,307,True,0,1,1,388,0,1,37,29,0.3333333333333333,309.5102626619176
1,3Q8GYXHFEP2FGPY98BB8KHHNX42C5F,173,0.361177028459,0.521201170706,0.655514534501,0.398994989097,1,2,316,True,0,1,1,367,1,1,37,29,0.3333333333333333,309.5102626619176
1,3Q8GYXHFEP2FGPY98BB8KHHNX42C5F,174,0.364315395636,0.512763678168,0.648019936904,0.412392336042,1,2,323,True,0,1,1,348,1,1,37,29,0.3333333333333333,309.5102626619176
1,3Q8GYXHFEP2FGPY98BB8KHHNX42C5F,175,0.325623919085,0.539890651839,0.64529531605,0.410745872858,1,2,301,True,0,1,1,387,1,1,37,29,0.3333333333333333,309.5102626619176
1,3Q8GYXHFEP2FGPY98BB8KHHNX42C5F,176,0.328074179675,0.524925149085,0.619815607172,0.411582007364,1,2,330,False,0,1,0,427,0,1,37,29,0.3333333333333333,309.5102626619176
1,3Q8GYXHFEP2FGPY98BB8KHHNX42C5F,177,0.305001535271,0.493612808469,0.65849625896,0.406841658435,1,2,319,False,1,2,0,712,0,1,37,29,0.3333333333333333,309.5102626619176
1,3Q8GYXHFEP2FGPY98BB8KHHNX42C5F,178,0.33002181643,0.469098789392,0.665879712377,0.388386596992,1,2,293,True,0,1,1,941,0,1,37,29,0.3333333333333333,309.5102626619176
1,3Q8GYXHFEP2FGPY98BB8KHHNX42C5F,179,0.325471872487,0.471028202714,0.645318430493,0.362128500137,0,1,295,False,0,1,1,1414,0,1,37,29,0.3333333333333333,309.5102626619176
1,3Q8GYXHFEP2FGPY98BB8KHHNX42C5F,180,0.302119409191,0.487451370839,0.634210371211,0.361006423102,0,1,412,True,1,2,0,1104,1,1,37,29,0.3333333333333333,309.5102626619176
1,3Q8GYXHFEP2FGPY98BB8KHHNX42C5F,181,0.319687136795,0.53025520447,0.645170330557,0.344822759162,0,1,349,True,1,2,0,412,0,1,37,29,0.3333333333333333,309.5102626619176
1,3Q8GYXHFEP2FGPY98BB8KHHNX42C5F,182,0.340622623277,0.558125328014,0.642579369694,0.339710510642,0,1,292,True,1,2,0,401,1,1,37,29,0.3333333333333333,309.5102626619176
1,3Q8GYXHFEP2FGPY98BB8KHHNX42C5F,183,0.326804303598,0.549400692329,0.592456717601,0.330638649531,0,1,321,False,1,2,1,521,1,1,37,29,0.3333333333333333,309.5102626619176
1,3Q8GYXHFEP2FGPY98BB8KHHNX42C5F,184,0.330197767995,0.557380521394,0.611489817058,0.338332086986,0,1,508,True,1,2,0,525,1,1,37,29,0.3333333333333333,309.5102626619176
1,3Q8GYXHFEP2FGPY98BB8KHHNX42C5F,185,0.305779190282,0.583624605417,0.613460177028,0.345801403967,0,1,334,False,1,2,1,1099,0,1,37,29,0.3333333333333333,309.5102626619176
1,3Q8GYXHFEP2FGPY98BB8KHHNX42C5F,186,0.301883092183,0.622316346564,0.630140532196,0.38159969755,0,1,351,False,0,1,1,771,0,1,37,29,0.3333333333333333,309.5102626619176
1,3Q8GYXHFEP2FGPY98BB8KHHNX42C5F,187,0.312907636544,0.586220534512,0.613095018461,0.400276008253,0,1,311,True,1,2,0,842,1,1,37,29,0.3333333333333333,309.5102626619176
1,3Q8GYXHFEP2FGPY98BB8KHHNX42C5F,188,0.352377051111,0.586986758336,0.572784351066,0.344680966765,0,1,309,True,1,2,0,571,1,1,37,29,0.3333333333333333,309.5102626619176
1,3Q8GYXHFEP2FGPY98BB8KHHNX42C5F,189,0.344876724602,0.638157165375,0.581975754788,0.351436314975,0,1,345,True,1,2,0,698,0,1,37,29,0.3333333333333333,309.5102626619176
1,3Q8GYXHFEP2FGPY98BB8KHHNX42C5F,190,0.392391798853,0.667164906322,0.552605566262,0.325587875814,0,1,307,True,1,2,0,360,1,1,37,29,0.3333333333333333,309.5102626619176
1,3Q8GYXHFEP2FGPY98BB8KHHNX42C5F,191,0.412042040593,0.644357666507,0.547124920533,0.329218442292,0,1,437,True,1,2,0,432,0,1,37,29,0.3333333333333333,309.5102626619176
1,3Q8GYXHFEP2FGPY98BB8KHHNX42C5F,192,0.379965792173,0.664566689272,0.570912410757,0.325998113065,0,1,322,False,0,1,1,1276,0,1,37,29,0.3333333333333333,309.5102626619176
1,3Q8GYXHFEP2FGPY98BB8KHHNX42C5F,193,0.389664565012,0.664375095335,0.55849233557,0.366447813253,0,1,416,True,1,2,0,552,1,1,37,29,0.3333333333333333,309.5102626619176
1,3Q8GYXHFEP2FGPY98BB8KHHNX42C5F,194,0.395044614715,0.72543228023,0.519210011433,0.355126527027,0,1,434,False,1,2,1,1147,0,1,37,29,0.3333333333333333,309.5102626619176
1,3Q8GYXHFEP2FGPY98BB8KHHNX42C5F,195,0.383792753181,0.712424710636,0.479336007569,0.387209370348,0,1,571,True,1,2,0,545,1,1,37,29,0.3333333333333333,309.5102626619176
1,3Q8GYXHFEP2FGPY98BB8KHHNX42C5F,196,0.37306997392,0.734290462084,0.460441785745,0.375364189949,0,1,318,True,1,2,0,554,1,1,37,29,0.3333333333333333,309.5102626619176
1,3Q8GYXHFEP2FGPY98BB8KHHNX42C5F,197,0.440370694377,0.747560565418,0.460608262771,0.410302321559,0,1,365,True,1,2,0,468,1,1,37,29,0.3333333333333333,309.5102626619176
1,3Q8GYXHFEP2FGPY98BB8KHHNX42C5F,198,0.471404410712,0.7366478523,0.467873357418,0.375276531813,0,1,526,False,0,1,1,1214,0,1,37,29,0.3333333333333333,309.5102626619176
1,3Q8GYXHFEP2FGPY98BB8KHHNX42C5F,199,0.487117657235,0.736005509776,0.446751124312,0.402649308091,0,1,368,True,1,2,0,446,1,1,37,29,0.3333333333333333,309.5102626619176
2,3NG53N1RLVJHXWQFBE4HG1QLXFO8P0,0,0.742621470936,0.272532468277,0.71669309271,0.479056705494,1,2,1283,True,0,1,1,1407,1,1,42,34,0.2166666666666666,395.82112238359963
2,3NG53N1RLVJHXWQFBE4HG1QLXFO8P0,1,0.714054437546,0.28956974681,0.711770360008,0.456458310278,1,2,769,True,0,1,1,598,1,1,42,34,0.2166666666666666,395.82112238359963
2,3NG53N1RLVJHXWQFBE4HG1QLXFO8P0,2,0.708947909512,0.346194423994,0.714402963935,0.46593679168,1,2,1088,True,0,1,1,554,0,1,42,34,0.2166666666666666,395.82112238359963
2,3NG53N1RLVJHXWQFBE4HG1QLXFO8P0,3,0.732490347346,0.339447868367,0.704013189795,0.385709276536,1,2,622,False,1,2,0,467,0,1,42,34,0.2166666666666666,395.82112238359963
2,3NG53N1RLVJHXWQFBE4HG1QLXFO8P0,4,0.717249489061,0.407606752597,0.721518196281,0.422206287292,1,2,755,True,0,1,1,789,1,1,42,34,0.2166666666666666,395.82112238359963
2,3NG53N1RLVJHXWQFBE4HG1QLXFO8P0,5,0.6630928988,0.45511262148,0.721181153667,0.404565489562,1,2,1175,True,0,1,1,510,1,1,42,34,0.2166666666666666,395.82112238359963
2,3NG53N1RLVJHXWQFBE4HG1QLXFO8P0,6,0.672738831011,0.474384545792,0.743141113631,0.381869747044,1,2,735,False,1,2,0,2458,1,1,42,34,0.2166666666666666,395.82112238359963
2,3NG53N1RLVJHXWQFBE4HG1QLXFO8P0,7,0.668045339679,0.480846588706,0.731564879728,0.405588632962,1,2,1253,True,1,2,1,1869,1,1,42,34,0.2166666666666666,395.82112238359963
2,3NG53N1RLVJHXWQFBE4HG1QLXFO8P0,8,0.669015262022,0.513473956177,0.728107518412,0.40687276212,1,2,845,True,1,2,1,866,0,1,42,34,0.2166666666666666,395.82112238359963
2,3NG53N1RLVJHXWQFBE4HG1QLXFO8P0,9,0.64671120204,0.526146178979,0.730336497662,0.408509497299,0,1,755,False,1,2,1,478,1,1,42,34,0.2166666666666666,395.82112238359963
2,3NG53N1RLVJHXWQFBE4HG1QLXFO8P0,10,0.607944402512,0.543315429143,0.724719472529,0.381349699905,0,1,586,True,1,2,0,1730,0,1,42,34,0.2166666666666666,395.82112238359963
2,3NG53N1RLVJHXWQFBE4HG1QLXFO8P0,11,0.623056850805,0.526648888826,0.697371744877,0.395908106836,0,1,939,False,1,2,1,616,1,1,42,34,0.2166666666666666,395.82112238359963
2,3NG53N1RLVJHXWQFBE4HG1QLXFO8P0,12,0.607721669601,0.554902084053,0.689983332344,0.380218517946,0,1,816,True,0,1,0,1161,1,1,42,34,0.2166666666666666,395.82112238359963
2,3NG53N1RLVJHXWQFBE4HG1QLXFO8P0,13,0.642416333717,0.576955978171,0.708708278957,0.341168637042,0,1,521,True,0,1,0,478,1,1,42,34,0.2166666666666666,395.82112238359963
2,3NG53N1RLVJHXWQFBE4HG1QLXFO8P0,14,0.614010351756,0.604034382831,0.732507162725,0.350118401239,0,1,648,True,0,1,0,668,1,1,42,34,0.2166666666666666,395.82112238359963
2,3NG53N1RLVJHXWQFBE4HG1QLXFO8P0,15,0.680413307829,0.594441283734,0.716261232916,0.355798838571,0,1,524,True,0,1,0,530,1,1,42,34,0.2166666666666666,395.82112238359963
2,3NG53N1RLVJHXWQFBE4HG1QLXFO8P0,16,0.67102435131,0.588086274504,0.730069464085,0.330877938548,0,1,593,False,1,2,1,2006,0,1,42,34,0.2166666666666666,395.82112238359963
2,3NG53N1RLVJHXWQFBE4HG1QLXFO8P0,17,0.718432568922,0.568204732239,0.686176168762,0.309765161617,0,1,590,True,0,1,0,401,1,1,42,34,0.2166666666666666,395.82112238359963
2,3NG53N1RLVJHXWQFBE4HG1QLXFO8P0,18,0.713141823764,0.57865702431,0.696062430132,0.367234912443,0,1,736,True,0,1,0,749,0,1,42,34,0.2166666666666666,395.82112238359963
2,3NG53N1RLVJHXWQFBE4HG1QLXFO8P0,19,0.707002308783,0.572723191735,0.701021460261,0.344983910079,0,1,629,True,0,1,0,921,1,1,42,34,0.2166666666666666,395.82112238359963
2,3NG53N1RLVJHXWQFBE4HG1QLXFO8P0,20,0.697338532194,0.583247904064,0.713862580976,0.369623913462,0,1,535,True,0,1,0,523,0,1,42,34,0.2166666666666666,395.82112238359963
2,3NG53N1RLVJHXWQFBE4HG1QLXFO8P0,21,0.683738606376,0.577831132902,0.720175638244,0.347221826515,1,2,607,False,1,2,0,1108,1,1,42,34,0.2166666666666666,395.82112238359963
2,3NG53N1RLVJHXWQFBE4HG1QLXFO8P0,22,0.723666933292,0.594247039033,0.678758987791,0.350429018148,1,2,545,True,-1,2,1,2501,-1,1,42,34,0.2166666666666666,395.82112238359963
2,3NG53N1RLVJHXWQFBE4HG1QLXFO8P0,23,0.722552862976,0.64363551746,0.657672810429,0.358987448701,1,2,707,True,1,2,1,529,1,1,42,34,0.2166666666666666,395.82112238359963
2,3NG53N1RLVJHXWQFBE4HG1QLXFO8P0,24,0.729163712473,0.664465485514,0.659189229643,0.373726090068,1,2,610,True,1,2,1,775,1,1,42,34,0.2166666666666666,395.82112238359963
2,3NG53N1RLVJHXWQFBE4HG1QLXFO8P0,25,0.736463051067,0.667677417009,0.633789239965,0.388062858383,1,2,572,True,1,2,1,670,0,1,42,34,0.2166666666666666,395.82112238359963
2,3NG53N1RLVJHXWQFBE4HG1QLXFO8P0,26,0.743521712443,0.680410974005,0.603566014102,0.365819318125,1,2,501,True,0,1,1,461,1,1,42,34,0.2166666666666666,395.82112238359963
2,3NG53N1RLVJHXWQFBE4HG1QLXFO8P0,27,0.732307752744,0.688129657145,0.639730342634,0.324473032481,1,2,752,True,0,1,1,594,1,1,42,34,0.2166666666666666,395.82112238359963
2,3NG53N1RLVJHXWQFBE4HG1QLXFO8P0,28,0.736811669823,0.670863418611,0.612317833639,0.359797741125,1,2,554,False,0,1,0,760,1,1,42,34,0.2166666666666666,395.82112238359963
2,3NG53N1RLVJHXWQFBE4HG1QLXFO8P0,29,0.743345059239,0.664878919109,0.616259626176,0.316896486661,1,2,435,True,0,1,1,1520,0,1,42,34,0.2166666666666666,395.82112238359963
2,3NG53N1RLVJHXWQFBE4HG1QLXFO8P0,30,0.746265616093,0.667204230628,0.57959946249,0.31335500672,1,2,515,False,1,2,0,1132,1,1,42,34,0.2166666666666666,395.82112238359963
2,3NG53N1RLVJHXWQFBE4HG1QLXFO8P0,31,0.723199980689,0.64267698388,0.581017754762,0.308527186817,1,2,646,True,1,2,1,1460,0,1,42,34,0.2166666666666666,395.82112238359963
2,3NG53N1RLVJHXWQFBE4HG1QLXFO8P0,32,0.694695825122,0.703101902478,0.568902198934,0.290605018323,0,1,635,True,0,1,0,1216,1,1,42,34,0.2166666666666666,395.82112238359963
2,3NG53N1RLVJHXWQFBE4HG1QLXFO8P0,33,0.67334094861,0.696419411433,0.578031478635,0.309599444775,0,1,578,True,0,1,0,592,1,1,42,34,0.2166666666666666,395.82112238359963
2,3NG53N1RLVJHXWQFBE4HG1QLXFO8P0,34,0.652335091449,0.70438345769,0.59605536339,0.279470956194,0,1,628,True,0,1,0,596,1,1,42,34,0.2166666666666666,395.82112238359963
2,3NG53N1RLVJHXWQFBE4HG1QLXFO8P0,35,0.657451953133,0.683837920999,0.568078580687,0.27404823551,0,1,588,True,0,1,0,492,0,1,42,34,0.2166666666666666,395.82112238359963
2,3NG53N1RLVJHXWQFBE4HG1QLXFO8P0,36,0.675374672435,0.712212599172,0.561377542482,0.284355796866,0,1,457,False,1,2,1,395,1,1,42,34,0.2166666666666666,395.82112238359963
2,3NG53N1RLVJHXWQFBE4HG1QLXFO8P0,37,0.671284094134,0.716259324014,0.566258884749,0.269938039503,0,1,691,True,1,2,0,841,1,1,42,34,0.2166666666666666,395.82112238359963
2,3NG53N1RLVJHXWQFBE4HG1QLXFO8P0,38,0.654751036327,0.744322707512,0.618638427368,0.294912002446,0,1,591,True,1,2,0,709,1,1,42,34,0.2166666666666666,395.82112238359963
2,3NG53N1RLVJHXWQFBE4HG1QLXFO8P0,39,0.660675754074,0.685611640794,0.605892201903,0.270200805787,0,1,769,True,1,2,0,1186,0,1,42,34,0.2166666666666666,395.82112238359963
2,3NG53N1RLVJHXWQFBE4HG1QLXFO8P0,40,0.697626230879,0.729448779435,0.608670557774,0.256991528728,0,1,770,True,0,1,0,455,0,1,42,34,0.2166666666666666,395.82112238359963
2,3NG53N1RLVJHXWQFBE4HG1QLXFO8P0,41,0.726645073604,0.717332378805,0.603307527487,0.277574736158,1,2,533,False,1,2,0,675,1,1,42,34,0.2166666666666666,395.82112238359963
2,3NG53N1RLVJHXWQFBE4HG1QLXFO8P0,42,0.710785605187,0.73572032618,0.603035835786,0.300463039776,1,2,588,True,1,2,1,1327,1,1,42,34,0.2166666666666666,395.82112238359963
2,3NG53N1RLVJHXWQFBE4HG1QLXFO8P0,43,0.690886938659,0.740720643321,0.608800181298,0.305367115844,1,2,579,False,1,2,0,487,1,1,42,34,0.2166666666666666,395.82112238359963
2,3NG53N1RLVJHXWQFBE4HG1QLXFO8P0,44,0.682073026999,0.726886066092,0.597549552128,0.298118154697,1,2,659,True,1,2,1,1026,0,1,42,34,0.2166666666666666,395.82112238359963
2,3NG53N1RLVJHXWQFBE4HG1QLXFO8P0,45,0.692167085493,0.701363725585,0.639345636163,0.368054277054,1,2,405,True,0,1,1,1093,0,1,42,34,0.2166666666666666,395.82112238359963
2,3NG53N1RLVJHXWQFBE4HG1QLXFO8P0,46,0.726979525113,0.685298681928,0.665140217735,0.392550601145,1,2,471,True,1,2,1,1220,1,1,42,34,0.2166666666666666,395.82112238359963
2,3NG53N1RLVJHXWQFBE4HG1QLXFO8P0,47,0.734914379351,0.68153045423,0.667316355854,0.380373869228,1,2,551,True,1,2,1,761,1,1,42,34,0.2166666666666666,395.82112238359963
2,3NG53N1RLVJHXWQFBE4HG1QLXFO8P0,48,0.714865063908,0.653994687644,0.672014216512,0.367354016553,1,2,518,True,1,2,1,1217,0,1,42,34,0.2166666666666666,395.82112238359963
2,3NG53N1RLVJHXWQFBE4HG1QLXFO8P0,49,0.713201331899,0.676140093398,0.674811303487,0.344411485936,0,1,880,False,1,2,1,837,1,1,42,34,0.2166666666666666,395.82112238359963
2,3NG53N1RLVJHXWQFBE4HG1QLXFO8P0,50,0.73310943824,0.669322372281,0.662652287375,0.29720573873,0,1,600,False,1,2,1,576,0,1,42,34,0.2166666666666666,395.82112238359963
2,3NG53N1RLVJHXWQFBE4HG1QLXFO8P0,51,0.700235093867,0.701682886358,0.677069605794,0.332317401302,0,1,424,False,0,1,1,737,0,1,42,34,0.2166666666666666,395.82112238359963
2,3NG53N1RLVJHXWQFBE4HG1QLXFO8P0,52,0.681608516568,0.679629779822,0.681276831864,0.288342858569,1,2,507,False,0,1,0,518,1,1,42,34,0.2166666666666666,395.82112238359963
2,3NG53N1RLVJHXWQFBE4HG1QLXFO8P0,53,0.611253601709,0.660626826063,0.70952385264,0.330572173264,1,2,491,False,0,1,0,482,1,1,42,34,0.2166666666666666,395.82112238359963
2,3NG53N1RLVJHXWQFBE4HG1QLXFO8P0,54,0.66703777187,0.672946186741,0.737926106414,0.317011361338,1,2,635,True,1,2,1,1546,1,1,42,34,0.2166666666666666,395.82112238359963
2,3NG53N1RLVJHXWQFBE4HG1QLXFO8P0,55,0.663328365422,0.668736431958,0.720239436976,0.329794236079,1,2,471,True,1,2,1,639,1,1,42,34,0.2166666666666666,395.82112238359963
2,3NG53N1RLVJHXWQFBE4HG1QLXFO8P0,56,0.612291779763,0.64812962841,0.714275483314,0.285713898761,1,2,491,True,1,2,1,979,0,1,42,34,0.2166666666666666,395.82112238359963
2,3NG53N1RLVJHXWQFBE4HG1QLXFO8P0,57,0.601996752534,0.690302803125,0.676016484568,0.271887355155,1,2,507,True,0,1,1,474,0,1,42,34,0.2166666666666666,395.82112238359963
2,3NG53N1RLVJHXWQFBE4HG1QLXFO8P0,58,0.613291721538,0.709488073072,0.661531678887,0.299130690859,0,1,723,True,1,2,0,771,0,1,42,34,0.2166666666666666,395.82112238359963
2,3NG53N1RLVJHXWQFBE4HG1QLXFO8P0,59,0.576180172387,0.710892275986,0.652653677393,0.314466701606,0,1,532,True,0,1,0,482,1,1,42,34,0.2166666666666666,395.82112238359963
2,3NG53N1RLVJHXWQFBE4HG1QLXFO8P0,60,0.55143212238,0.6853037472,0.679903912304,0.298421798989,0,1,566,False,0,1,1,1999,0,1,42,34,0.2166666666666666,395.82112238359963
2,3NG53N1RLVJHXWQFBE4HG1QLXFO8P0,61,0.552884156424,0.712766267125,0.703638809173,0.32433324524,0,1,510,False,1,2,1,1037,0,1,42,34,0.2166666666666666,395.82112238359963
2,3NG53N1RLVJHXWQFBE4HG1QLXFO8P0,62,0.523932583535,0.711521035133,0.679767370885,0.337888246509,1,2,595,True,0,1,1,1230,1,1,42,34,0.2166666666666666,395.82112238359963
2,3NG53N1RLVJHXWQFBE4HG1QLXFO8P0,63,0.463568418654,0.711676676089,0.654057416911,0.301245991201,1,2,873,True,0,1,1,454,1,1,42,34,0.2166666666666666,395.82112238359963
2,3NG53N1RLVJHXWQFBE4HG1QLXFO8P0,64,0.512684775876,0.72135123212,0.608900413955,0.307315993953,1,2,589,False,0,1,0,2023,0,1,42,34,0.2166666666666666,395.82112238359963
2,3NG53N1RLVJHXWQFBE4HG1QLXFO8P0,65,0.4789698412,0.699848934728,0.614568831315,0.250436393356,1,2,404,False,1,2,0,963,1,1,42,34,0.2166666666666666,395.82112238359963
2,3NG53N1RLVJHXWQFBE4HG1QLXFO8P0,66,0.4762029504,0.694385754211,0.632767436931,0.284111851193,1,2,468,True,1,2,1,2242,0,1,42,34,0.2166666666666666,395.82112238359963
2,3NG53N1RLVJHXWQFBE4HG1QLXFO8P0,67,0.507081830395,0.677726367322,0.626004736862,0.317292542624,1,2,504,True,1,2,1,1026,1,1,42,34,0.2166666666666666,395.82112238359963
2,3NG53N1RLVJHXWQFBE4HG1QLXFO8P0,68,0.530878795539,0.655313569542,0.603059838512,0.35399122944,1,2,500,True,1,2,1,939,0,1,42,34,0.2166666666666666,395.82112238359963
2,3NG53N1RLVJHXWQFBE4HG1QLXFO8P0,69,0.515056866669,0.621614881021,0.58701353054,0.316633763971,0,1,488,False,1,2,1,1007,1,1,42,34,0.2166666666666666,395.82112238359963
2,3NG53N1RLVJHXWQFBE4HG1QLXFO8P0,70,0.564088952011,0.605891511566,0.597831961545,0.302344162838,0,1,525,True,0,1,0,1385,0,1,42,34,0.2166666666666666,395.82112238359963
2,3NG53N1RLVJHXWQFBE4HG1QLXFO8P0,71,0.54449084523,0.577146163723,0.59199090907,0.331577263471,0,1,427,True,1,2,0,1016,0,1,42,34,0.2166666666666666,395.82112238359963
2,3NG53N1RLVJHXWQFBE4HG1QLXFO8P0,72,0.566979079908,0.605338027274,0.564635273227,0.330100786862,1,2,1303,True,1,2,1,869,0,1,42,34,0.2166666666666666,395.82112238359963
2,3NG53N1RLVJHXWQFBE4HG1QLXFO8P0,73,0.551299433382,0.607923806021,0.548505305566,0.309216084463,1,2,480,False,0,1,0,1246,1,1,42,34,0.2166666666666666,395.82112238359963
2,3NG53N1RLVJHXWQFBE4HG1QLXFO8P0,74,0.542745978,0.589975468932,0.538285961481,0.334258316899,1,2,475,True,0,1,1,580,0,1,42,34,0.2166666666666666,395.82112238359963
2,3NG53N1RLVJHXWQFBE4HG1QLXFO8P0,75,0.561497649091,0.630898581991,0.556776422344,0.331123452327,1,2,1098,True,0,1,1,1531,1,1,42,34,0.2166666666666666,395.82112238359963
2,3NG53N1RLVJHXWQFBE4HG1QLXFO8P0,76,0.589017199812,0.627952603444,0.550030110147,0.346628080055,1,2,785,False,0,1,0,737,0,1,42,34,0.2166666666666666,395.82112238359963
2,3NG53N1RLVJHXWQFBE4HG1QLXFO8P0,77,0.584186560288,0.579581394278,0.557708870011,0.372955434066,1,2,374,False,1,2,0,534,1,1,42,34,0.2166666666666666,395.82112238359963
2,3NG53N1RLVJHXWQFBE4HG1QLXFO8P0,78,0.663978965977,0.603348757443,0.596450133085,0.335534554466,1,2,486,True,1,2,1,1674,0,1,42,34,0.2166666666666666,395.82112238359963
2,3NG53N1RLVJHXWQFBE4HG1QLXFO8P0,79,0.685488538842,0.661324828013,0.628562826405,0.317508487146,0,1,593,False,1,2,1,787,1,1,42,34,0.2166666666666666,395.82112238359963
2,3NG53N1RLVJHXWQFBE4HG1QLXFO8P0,80,0.689540608913,0.642447759192,0.639191253292,0.280146174731,0,1,418,True,1,2,0,1796,1,1,42,34,0.2166666666666666,395.82112238359963
2,3NG53N1RLVJHXWQFBE4HG1QLXFO8P0,81,0.710426203535,0.655563840418,0.647453282745,0.260992840152,0,1,423,True,1,2,0,1382,0,1,42,34,0.2166666666666666,395.82112238359963
2,3NG53N1RLVJHXWQFBE4HG1QLXFO8P0,82,0.69084005601,0.626748569246,0.618006356653,0.265458837477,0,1,467,True,0,1,0,873,1,1,42,34,0.2166666666666666,395.82112238359963
2,3NG53N1RLVJHXWQFBE4HG1QLXFO8P0,83,0.66045000665,0.589118902235,0.582373787352,0.266296660997,0,1,599,True,0,1,0,616,0,1,42,34,0.2166666666666666,395.82112238359963
2,3NG53N1RLVJHXWQFBE4HG1QLXFO8P0,84,0.692987016621,0.603946174416,0.594937517543,0.304179889849,1,2,415,True,0,1,1,1040,1,1,42,34,0.2166666666666666,395.82112238359963
2,3NG53N1RLVJHXWQFBE4HG1QLXFO8P0,85,0.742301951068,0.638028136197,0.598561432857,0.339665013074,1,2,605,False,0,1,0,478,0,1,42,34,0.2166666666666666,395.82112238359963
2,3NG53N1RLVJHXWQFBE4HG1QLXFO8P0,86,0.686698795879,0.686641888378,0.563299184018,0.332946702685,1,2,383,True,1,2,1,524,0,1,42,34,0.2166666666666666,395.82112238359963
2,3NG53N1RLVJHXWQFBE4HG1QLXFO8P0,87,0.690926289258,0.664793565833,0.567644663702,0.350846869979,0,1,831,True,1,2,0,666,1,1,42,34,0.2166666666666666,395.82112238359963
2,3NG53N1RLVJHXWQFBE4HG1QLXFO8P0,88,0.639906407079,0.672512670635,0.552287929984,0.382400271729,0,1,458,True,1,2,0,531,1,1,42,34,0.2166666666666666,395.82112238359963
2,3NG53N1RLVJHXWQFBE4HG1QLXFO8P0,89,0.599526089753,0.702037914288,0.551499978304,0.385810615866,0,1,393,True,1,2,0,470,1,1,42,34,0.2166666666666666,395.82112238359963
2,3NG53N1RLVJHXWQFBE4HG1QLXFO8P0,90,0.571792989341,0.691019576673,0.521950006971,0.435034807193,0,1,15,True,1,2,0,51,0,1,42,34,0.2166666666666666,395.82112238359963
2,3NG53N1RLVJHXWQFBE4HG1QLXFO8P0,91,0.584683137779,0.706512645771,0.51122706761,0.445767985761,0,1,493,False,1,2,1,1275,1,1,42,34,0.2166666666666666,395.82112238359963
2,3NG53N1RLVJHXWQFBE4HG1QLXFO8P0,92,0.554861172246,0.711737596545,0.492981519726,0.440683358106,0,1,951,True,0,1,0,2071,0,1,42,34,0.2166666666666666,395.82112238359963
2,3NG53N1RLVJHXWQFBE4HG1QLXFO8P0,93,0.56691541983,0.724832553503,0.484850092769,0.421860460474,0,1,466,True,1,2,0,1189,0,1,42,34,0.2166666666666666,395.82112238359963
2,3NG53N1RLVJHXWQFBE4HG1QLXFO8P0,94,0.566678637331,0.720026008902,0.464133901312,0.41295891552,0,1,1029,False,1,2,1,1298,1,1,42,34,0.2166666666666666,395.82112238359963
2,3NG53N1RLVJHXWQFBE4HG1QLXFO8P0,95,0.526879516376,0.731858231709,0.476966682047,0.397678154404,0,1,596,True,0,1,0,1480,0,1,42,34,0.2166666666666666,395.82112238359963
2,3NG53N1RLVJHXWQFBE4HG1QLXFO8P0,96,0.495215171763,0.724235293032,0.515579848533,0.441247188452,1,2,506,False,1,2,0,758,1,1,42,34,0.2166666666666666,395.82112238359963
2,3NG53N1RLVJHXWQFBE4HG1QLXFO8P0,97,0.451702131943,0.722808342847,0.534160534675,0.393018126972,1,2,581,True,1,2,1,1752,0,1,42,34,0.2166666666666666,395.82112238359963
2,3NG53N1RLVJHXWQFBE4HG1QLXFO8P0,98,0.472061866997,0.665813203964,0.484894662984,0.383038572744,1,2,497,True,0,1,1,582,1,1,42,34,0.2166666666666666,395.82112238359963
2,3NG53N1RLVJHXWQFBE4HG1QLXFO8P0,99,0.44047725176,0.677258434574,0.482475294507,0.368141735434,1,2,604,True,0,1,1,596,1,1,42,34,0.2166666666666666,395.82112238359963
2,3NG53N1RLVJHXWQFBE4HG1QLXFO8P0,100,0.465939039681,0.675360161858,0.477210773749,0.392195785011,1,2,443,False,1,2,0,1885,1,1,42,34,0.2166666666666666,395.82112238359963
2,3NG53N1RLVJHXWQFBE4HG1QLXFO8P0,101,0.484780332161,0.725432311224,0.488300642483,0.393341274419,1,2,595,False,1,2,0,605,1,1,42,34,0.2166666666666666,395.82112238359963
2,3NG53N1RLVJHXWQFBE4HG1QLXFO8P0,102,0.483232027022,0.713118198543,0.510764901989,0.382117662374,1,2,420,True,1,2,1,694,1,1,42,34,0.2166666666666666,395.82112238359963
2,3NG53N1RLVJHXWQFBE4HG1QLXFO8P0,103,0.487664781079,0.746520841043,0.488735788724,0.354687213322,1,2,522,True,0,1,1,965,1,1,42,34,0.2166666666666666,395.82112238359963
2,3NG53N1RLVJHXWQFBE4HG1QLXFO8P0,104,0.466196046634,0.738623462929,0.484563566009,0.359013680846,1,2,384,True,0,1,1,524,1,1,42,34,0.2166666666666666,395.82112238359963
2,3NG53N1RLVJHXWQFBE4HG1QLXFO8P0,105,0.442305640081,0.735684662005,0.457603870736,0.422503378505,1,2,406,True,0,1,1,1507,1,1,42,34,0.2166666666666666,395.82112238359963
2,3NG53N1RLVJHXWQFBE4HG1QLXFO8P0,106,0.431291039251,0.737970405597,0.474213679147,0.440406871436,1,2,576,True,0,1,1,477,1,1,42,34,0.2166666666666666,395.82112238359963
2,3NG53N1RLVJHXWQFBE4HG1QLXFO8P0,107,0.411758552591,0.726683838125,0.424416267289,0.437138352581,1,2,535,True,0,1,1,683,0,1,42,34,0.2166666666666666,395.82112238359963
2,3NG53N1RLVJHXWQFBE4HG1QLXFO8P0,108,0.426170150128,0.716216452261,0.437737338122,0.394549101032,1,2,813,False,1,2,0,2006,1,1,42,34,0.2166666666666666,395.82112238359963
2,3NG53N1RLVJHXWQFBE4HG1QLXFO8P0,109,0.459510607636,0.734927828656,0.409597477729,0.408865363166,1,2,517,True,1,2,1,1605,0,1,42,34,0.2166666666666666,395.82112238359963
2,3NG53N1RLVJHXWQFBE4HG1QLXFO8P0,110,0.427067584609,0.687396330944,0.422055811318,0.420048706351,1,2,423,True,0,1,1,1802,0,1,42,34,0.2166666666666666,395.82112238359963
2,3NG53N1RLVJHXWQFBE4HG1QLXFO8P0,111,0.396708940978,0.671869621097,0.433717704758,0.409536015214,0,1,445,False,1,2,1,553,1,1,42,34,0.2166666666666666,395.82112238359963
2,3NG53N1RLVJHXWQFBE4HG1QLXFO8P0,112,0.392163878606,0.674074699172,0.421056076456,0.417970716472,0,1,584,True,1,2,0,1622,1,1,42,34,0.2166666666666666,395.82112238359963
2,3NG53N1RLVJHXWQFBE4HG1QLXFO8P0,113,0.405190010723,0.621025368561,0.435236166576,0.408741840632,0,1,591,True,1,2,0,659,0,1,42,34,0.2166666666666666,395.82112238359963
2,3NG53N1RLVJHXWQFBE4HG1QLXFO8P0,114,0.438900538552,0.653627324378,0.436495632727,0.413355976541,0,1,424,True,0,1,0,710,0,1,42,34,0.2166666666666666,395.82112238359963
2,3NG53N1RLVJHXWQFBE4HG1QLXFO8P0,115,0.466364070331,0.639706334825,0.420982311789,0.37690224461,0,1,445,False,1,2,1,505,0,1,42,34,0.2166666666666666,395.82112238359963
2,3NG53N1RLVJHXWQFBE4HG1QLXFO8P0,116,0.44593666449,0.664991972369,0.444372392431,0.369366843978,0,1,773,True,0,1,0,1362,0,1,42,34,0.2166666666666666,395.82112238359963
2,3NG53N1RLVJHXWQFBE4HG1QLXFO8P0,117,0.412733194721,0.661210229012,0.483239814095,0.329894679932,1,2,401,False,1,2,0,732,1,1,42,34,0.2166666666666666,395.82112238359963
2,3NG53N1RLVJHXWQFBE4HG1QLXFO8P0,118,0.431345823754,0.653591919012,0.468808732687,0.333441714697,1,2,603,False,1,2,0,490,1,1,42,34,0.2166666666666666,395.82112238359963
2,3NG53N1RLVJHXWQFBE4HG1QLXFO8P0,119,0.447208271084,0.62713216337,0.475007496911,0.32802780441,1,2,482,True,-1,2,1,2500,-1,1,42,34,0.2166666666666666,395.82112238359963
2,3NG53N1RLVJHXWQFBE4HG1QLXFO8P0,120,0.504181576761,0.598908450997,0.515211526458,0.320161421711,1,2,561,True,1,2,1,563,0,1,42,34,0.2166666666666666,395.82112238359963
2,3NG53N1RLVJHXWQFBE4HG1QLXFO8P0,121,0.538685689494,0.59872734267,0.581245967994,0.326761785411,1,2,1234,False,1,2,0,1231,1,1,42,34,0.2166666666666666,395.82112238359963
2,3NG53N1RLVJHXWQFBE4HG1QLXFO8P0,122,0.545842916492,0.565631827948,0.572375519669,0.349220564181,1,2,516,True,1,2,1,1339,1,1,42,34,0.2166666666666666,395.82112238359963
2,3NG53N1RLVJHXWQFBE4HG1QLXFO8P0,123,0.534424600245,0.575336677774,0.589370511578,0.317026148602,1,2,502,False,1,2,0,815,0,1,42,34,0.2166666666666666,395.82112238359963
2,3NG53N1RLVJHXWQFBE4HG1QLXFO8P0,124,0.526371932117,0.577041141149,0.5830435132,0.304210055249,1,2,481,True,1,2,1,858,0,1,42,34,0.2166666666666666,395.82112238359963
2,3NG53N1RLVJHXWQFBE4HG1QLXFO8P0,125,0.49512953076,0.52563292561,0.545587063314,0.312630586025,1,2,429,True,0,1,1,745,1,1,42,34,0.2166666666666666,395.82112238359963
2,3NG53N1RLVJHXWQFBE4HG1QLXFO8P0,126,0.530068526255,0.510034012006,0.577867996947,0.29247870187,1,2,503,True,0,1,1,502,1,1,42,34,0.2166666666666666,395.82112238359963
2,3NG53N1RLVJHXWQFBE4HG1QLXFO8P0,127,0.521176469857,0.476556608777,0.587986796524,0.287512284603,1,2,706,True,0,1,1,496,0,1,42,34,0.2166666666666666,395.82112238359963
2,3NG53N1RLVJHXWQFBE4HG1QLXFO8P0,128,0.517407173469,0.451511907077,0.63486949102,0.272527687021,0,1,368,True,1,2,0,847,1,1,42,34,0.2166666666666666,395.82112238359963
2,3NG53N1RLVJHXWQFBE4HG1QLXFO8P0,129,0.519013950795,0.441926101218,0.638098815725,0.259425093522,0,1,437,False,1,2,1,2433,1,1,42,34,0.2166666666666666,395.82112238359963
2,3NG53N1RLVJHXWQFBE4HG1QLXFO8P0,130,0.498890596703,0.467441570089,0.653874797874,0.255058599684,0,1,525,True,1,2,0,828,1,1,42,34,0.2166666666666666,395.82112238359963
2,3NG53N1RLVJHXWQFBE4HG1QLXFO8P0,131,0.506975099993,0.5138196349,0.723727134143,0.289296114384,0,1,461,True,1,2,0,1010,1,1,42,34,0.2166666666666666,395.82112238359963
2,3NG53N1RLVJHXWQFBE4HG1QLXFO8P0,132,0.478373189761,0.515418585011,0.739344280162,0.319696009516,0,1,431,True,1,2,0,598,1,1,42,34,0.2166666666666666,395.82112238359963
2,3NG53N1RLVJHXWQFBE4HG1QLXFO8P0,133,0.464117630012,0.505406846973,0.710796212728,0.358548929167,0,1,477,True,1,2,0,488,0,1,42,34,0.2166666666666666,395.82112238359963
2,3NG53N1RLVJHXWQFBE4HG1QLXFO8P0,134,0.438161564291,0.512963083972,0.663310280412,0.414164557033,0,1,401,True,0,1,0,1043,0,1,42,34,0.2166666666666666,395.82112238359963
2,3NG53N1RLVJHXWQFBE4HG1QLXFO8P0,135,0.437804854271,0.521267445542,0.707140312177,0.381977117266,1,2,447,True,0,1,1,807,1,1,42,34,0.2166666666666666,395.82112238359963
2,3NG53N1RLVJHXWQFBE4HG1QLXFO8P0,136,0.39550576703,0.530734677637,0.722301577653,0.386129965171,1,2,1399,True,0,1,1,414,1,1,42,34,0.2166666666666666,395.82112238359963
2,3NG53N1RLVJHXWQFBE4HG1QLXFO8P0,137,0.369825946503,0.529297444232,0.705073970166,0.412192170598,1,2,905,True,0,1,1,481,1,1,42,34,0.2166666666666666,395.82112238359963
2,3NG53N1RLVJHXWQFBE4HG1QLXFO8P0,138,0.340955933434,0.535677091359,0.676049799996,0.397064309229,1,2,453,False,0,1,0,753,1,1,42,34,0.2166666666666666,395.82112238359963
2,3NG53N1RLVJHXWQFBE4HG1QLXFO8P0,139,0.327841930378,0.494485627413,0.67379787808,0.385319942822,1,2,465,True,0,1,1,472,1,1,42,34,0.2166666666666666,395.82112238359963
2,3NG53N1RLVJHXWQFBE4HG1QLXFO8P0,140,0.346949999261,0.50276959175,0.631642167891,0.352071439617,1,2,659,False,0,1,0,1022,1,1,42,34,0.2166666666666666,395.82112238359963
2,3NG53N1RLVJHXWQFBE4HG1QLXFO8P0,141,0.327683547083,0.479498572317,0.588172558354,0.338016967094,1,2,439,False,0,1,0,645,0,1,42,34,0.2166666666666666,395.82112238359963
2,3NG53N1RLVJHXWQFBE4HG1QLXFO8P0,142,0.345778721519,0.463422938754,0.621093596977,0.356575357295,0,1,567,False,1,2,1,656,1,1,42,34,0.2166666666666666,395.82112238359963
2,3NG53N1RLVJHXWQFBE4HG1QLXFO8P0,143,0.364945822642,0.467786950715,0.638775660409,0.387799137668,0,1,632,True,1,2,0,744,0,1,42,34,0.2166666666666666,395.82112238359963
2,3NG53N1RLVJHXWQFBE4HG1QLXFO8P0,144,0.366856198242,0.479262099846,0.638164830174,0.392213022096,0,1,466,False,0,1,1,560,0,1,42,34,0.2166666666666666,395.82112238359963
2,3NG53N1RLVJHXWQFBE4HG1QLXFO8P0,145,0.353443186556,0.456792617563,0.592292922404,0.419555911538,0,1,924,True,0,1,0,868,1,1,42,34,0.2166666666666666,395.82112238359963
2,3NG53N1RLVJHXWQFBE4HG1QLXFO8P0,146,0.301722088337,0.45830036555,0.622835797891,0.375761582739,0,1,722,False,1,2,1,1760,0,1,42,34,0.2166666666666666,395.82112238359963
2,3NG53N1RLVJHXWQFBE4HG1QLXFO8P0,147,0.264341556455,0.449775355421,0.662131127511,0.349120033327,0,1,784,False,0,1,1,973,0,1,42,34,0.2166666666666666,395.82112238359963
2,3NG53N1RLVJHXWQFBE4HG1QLXFO8P0,148,0.264668248755,0.494929555671,0.639769434173,0.358401192005,1,2,416,True,1,2,1,1261,0,1,42,34,0.2166666666666666,395.82112238359963
2,3NG53N1RLVJHXWQFBE4HG1QLXFO8P0,149,0.30110562558,0.464280328832,0.609903853688,0.377339726515,1,2,11,True,0,1,1,979,1,1,42,34,0.2166666666666666,395.82112238359963
2,3NG53N1RLVJHXWQFBE4HG1QLXFO8P0,150,0.280623215878,0.481986230299,0.626281431716,0.383460733712,1,2,509,False,1,2,0,1746,1,1,42,34,0.2166666666666666,395.82112238359963
2,3NG53N1RLVJHXWQFBE4HG1QLXFO8P0,151,0.304683770407,0.502435718544,0.643640302365,0.391815879345,1,2,845,True,0,1,1,1565,0,1,42,34,0.2166666666666666,395.82112238359963
2,3NG53N1RLVJHXWQFBE4HG1QLXFO8P0,152,0.283322642867,0.498139442605,0.642128054045,0.352140031719,1,2,471,True,1,2,1,915,0,1,42,34,0.2166666666666666,395.82112238359963
2,3NG53N1RLVJHXWQFBE4HG1QLXFO8P0,153,0.306269030949,0.451614361835,0.654672308956,0.348380129875,0,1,650,True,1,2,0,768,1,1,42,34,0.2166666666666666,395.82112238359963
2,3NG53N1RLVJHXWQFBE4HG1QLXFO8P0,154,0.308778603441,0.402575938955,0.656372423923,0.342612192118,0,1,579,True,0,1,0,1333,0,1,42,34,0.2166666666666666,395.82112238359963
2,3NG53N1RLVJHXWQFBE4HG1QLXFO8P0,155,0.33451263543,0.446579202849,0.658542188835,0.357265872674,0,1,455,True,1,2,0,655,0,1,42,34,0.2166666666666666,395.82112238359963
2,3NG53N1RLVJHXWQFBE4HG1QLXFO8P0,156,0.297271386897,0.430236977273,0.63540553159,0.375693693187,0,1,494,True,0,1,0,1672,0,1,42,34,0.2166666666666666,395.82112238359963
2,3NG53N1RLVJHXWQFBE4HG1QLXFO8P0,157,0.28858538497,0.452657205597,0.623941677319,0.338900571893,1,2,485,True,1,2,1,714,0,1,42,34,0.2166666666666666,395.82112238359963
2,3NG53N1RLVJHXWQFBE4HG1QLXFO8P0,158,0.25563944793,0.465453983137,0.603769339648,0.360800282578,1,2,519,False,0,1,0,617,0,1,42,34,0.2166666666666666,395.82112238359963
2,3NG53N1RLVJHXWQFBE4HG1QLXFO8P0,159,0.26148909479,0.460071212732,0.606546526811,0.307855002198,1,2,458,True,1,2,1,661,0,1,42,34,0.2166666666666666,395.82112238359963
2,3NG53N1RLVJHXWQFBE4HG1QLXFO8P0,160,0.274099036929,0.459478985881,0.637334141907,0.33532419807,1,2,883,False,1,2,0,1324,0,1,42,34,0.2166666666666666,395.82112238359963
2,3NG53N1RLVJHXWQFBE4HG1QLXFO8P0,161,0.307966452014,0.46872058764,0.637873391684,0.34623859314,1,2,760,False,0,1,0,679,0,1,42,34,0.2166666666666666,395.82112238359963
2,3NG53N1RLVJHXWQFBE4HG1QLXFO8P0,162,0.270379620162,0.466356103946,0.646717215096,0.393464062872,0,1,699,True,1,2,0,863,0,1,42,34,0.2166666666666666,395.82112238359963
2,3NG53N1RLVJHXWQFBE4HG1QLXFO8P0,163,0.251737674833,0.479336880963,0.619903246132,0.413261205596,0,1,502,True,0,1,0,472,0,1,42,34,0.2166666666666666,395.82112238359963
2,3NG53N1RLVJHXWQFBE4HG1QLXFO8P0,164,0.286525398425,0.440569128367,0.665760959524,0.388390710515,0,1,583,True,0,1,0,1188,0,1,42,34,0.2166666666666666,395.82112238359963
2,3NG53N1RLVJHXWQFBE4HG1QLXFO8P0,165,0.261801143272,0.465180125042,0.643203603033,0.383915211172,1,2,667,False,0,1,0,823,0,1,42,34,0.2166666666666666,395.82112238359963
2,3NG53N1RLVJHXWQFBE4HG1QLXFO8P0,166,0.272758270544,0.481601358765,0.636703274324,0.398893295312,1,2,1021,False,1,2,0,522,0,1,42,34,0.2166666666666666,395.82112238359963
2,3NG53N1RLVJHXWQFBE4HG1QLXFO8P0,167,0.269275042302,0.502893453039,0.650418341444,0.359880215179,0,1,501,True,0,1,0,497,1,1,42,34,0.2166666666666666,395.82112238359963
2,3NG53N1RLVJHXWQFBE4HG1QLXFO8P0,168,0.321244877244,0.528573132907,0.66957626249,0.376463063499,0,1,420,True,0,1,0,411,0,1,42,34,0.2166666666666666,395.82112238359963
2,3NG53N1RLVJHXWQFBE4HG1QLXFO8P0,169,0.327522928076,0.508532688437,0.657874425455,0.417988749297,0,1,3,True,1,2,0,755,1,1,42,34,0.2166666666666666,395.82112238359963
2,3NG53N1RLVJHXWQFBE4HG1QLXFO8P0,170,0.34872481577,0.521911121289,0.655656229698,0.380266706389,0,1,461,True,1,2,0,418,0,1,42,34,0.2166666666666666,395.82112238359963
2,3NG53N1RLVJHXWQFBE4HG1QLXFO8P0,171,0.336841396031,0.530428789858,0.665971836127,0.435348605431,0,1,460,False,0,1,1,391,0,1,42,34,0.2166666666666666,395.82112238359963
2,3NG53N1RLVJHXWQFBE4HG1QLXFO8P0,172,0.341837444982,0.543180536576,0.641218605426,0.435268405162,0,1,571,True,1,2,0,961,1,1,42,34,0.2166666666666666,395.82112238359963
2,3NG53N1RLVJHXWQFBE4HG1QLXFO8P0,173,0.361177028459,0.521201170706,0.655514534501,0.398994989097,0,1,395,True,0,1,0,1338,0,1,42,34,0.2166666666666666,395.82112238359963
2,3NG53N1RLVJHXWQFBE4HG1QLXFO8P0,174,0.364315395636,0.512763678168,0.648019936904,0.412392336042,0,1,387,True,1,2,0,767,0,1,42,34,0.2166666666666666,395.82112238359963
2,3NG53N1RLVJHXWQFBE4HG1QLXFO8P0,175,0.325623919085,0.539890651839,0.64529531605,0.410745872858,0,1,516,True,0,1,0,438,0,1,42,34,0.2166666666666666,395.82112238359963
2,3NG53N1RLVJHXWQFBE4HG1QLXFO8P0,176,0.328074179675,0.524925149085,0.619815607172,0.411582007364,1,2,421,False,1,2,0,517,0,1,42,34,0.2166666666666666,395.82112238359963
2,3NG53N1RLVJHXWQFBE4HG1QLXFO8P0,177,0.305001535271,0.493612808469,0.65849625896,0.406841658435,1,2,638,True,1,2,1,2103,1,1,42,34,0.2166666666666666,395.82112238359963
2,3NG53N1RLVJHXWQFBE4HG1QLXFO8P0,178,0.33002181643,0.469098789392,0.665879712377,0.388386596992,1,2,700,True,1,2,1,606,1,1,42,34,0.2166666666666666,395.82112238359963
2,3NG53N1RLVJHXWQFBE4HG1QLXFO8P0,179,0.325471872487,0.471028202714,0.645318430493,0.362128500137,1,2,880,True,1,2,1,1105,0,1,42,34,0.2166666666666666,395.82112238359963
2,3NG53N1RLVJHXWQFBE4HG1QLXFO8P0,180,0.302119409191,0.487451370839,0.634210371211,0.361006423102,1,2,560,True,1,2,1,515,0,1,42,34,0.2166666666666666,395.82112238359963
2,3NG53N1RLVJHXWQFBE4HG1QLXFO8P0,181,0.319687136795,0.53025520447,0.645170330557,0.344822759162,1,2,408,False,0,1,0,470,1,1,42,34,0.2166666666666666,395.82112238359963
2,3NG53N1RLVJHXWQFBE4HG1QLXFO8P0,182,0.340622623277,0.558125328014,0.642579369694,0.339710510642,1,2,454,True,0,1,1,659,0,1,42,34,0.2166666666666666,395.82112238359963
2,3NG53N1RLVJHXWQFBE4HG1QLXFO8P0,183,0.326804303598,0.549400692329,0.592456717601,0.330638649531,1,2,459,True,1,2,1,514,1,1,42,34,0.2166666666666666,395.82112238359963
2,3NG53N1RLVJHXWQFBE4HG1QLXFO8P0,184,0.330197767995,0.557380521394,0.611489817058,0.338332086986,1,2,420,True,1,2,1,507,1,1,42,34,0.2166666666666666,395.82112238359963
2,3NG53N1RLVJHXWQFBE4HG1QLXFO8P0,185,0.305779190282,0.583624605417,0.613460177028,0.345801403967,1,2,775,True,1,2,1,457,1,1,42,34,0.2166666666666666,395.82112238359963
2,3NG53N1RLVJHXWQFBE4HG1QLXFO8P0,186,0.301883092183,0.622316346564,0.630140532196,0.38159969755,1,2,517,True,1,2,1,742,1,1,42,34,0.2166666666666666,395.82112238359963
2,3NG53N1RLVJHXWQFBE4HG1QLXFO8P0,187,0.312907636544,0.586220534512,0.613095018461,0.400276008253,1,2,485,False,0,1,0,1565,0,1,42,34,0.2166666666666666,395.82112238359963
2,3NG53N1RLVJHXWQFBE4HG1QLXFO8P0,188,0.352377051111,0.586986758336,0.572784351066,0.344680966765,1,2,521,True,1,2,1,468,1,1,42,34,0.2166666666666666,395.82112238359963
2,3NG53N1RLVJHXWQFBE4HG1QLXFO8P0,189,0.344876724602,0.638157165375,0.581975754788,0.351436314975,1,2,511,False,1,2,0,990,1,1,42,34,0.2166666666666666,395.82112238359963
2,3NG53N1RLVJHXWQFBE4HG1QLXFO8P0,190,0.392391798853,0.667164906322,0.552605566262,0.325587875814,1,2,535,True,1,2,1,831,0,1,42,34,0.2166666666666666,395.82112238359963
2,3NG53N1RLVJHXWQFBE4HG1QLXFO8P0,191,0.412042040593,0.644357666507,0.547124920533,0.329218442292,1,2,533,False,1,2,0,771,1,1,42,34,0.2166666666666666,395.82112238359963
2,3NG53N1RLVJHXWQFBE4HG1QLXFO8P0,192,0.379965792173,0.664566689272,0.570912410757,0.325998113065,1,2,793,False,1,2,0,927,0,1,42,34,0.2166666666666666,395.82112238359963
2,3NG53N1RLVJHXWQFBE4HG1QLXFO8P0,193,0.389664565012,0.664375095335,0.55849233557,0.366447813253,1,2,394,True,1,2,1,1160,0,1,42,34,0.2166666666666666,395.82112238359963
2,3NG53N1RLVJHXWQFBE4HG1QLXFO8P0,194,0.395044614715,0.72543228023,0.519210011433,0.355126527027,1,2,558,True,0,1,1,533,0,1,42,34,0.2166666666666666,395.82112238359963
2,3NG53N1RLVJHXWQFBE4HG1QLXFO8P0,195,0.383792753181,0.712424710636,0.479336007569,0.387209370348,1,2,477,True,0,1,1,560,1,1,42,34,0.2166666666666666,395.82112238359963
