"Subject" "Age" "Handedness" "Sex" "Counterbalance" "afleider" "brugofniet" "opgaveAbstr" "operator.SubTrial." "PostConf.RESP.SubTrial." "PreCj.RESP.SubTrial." "stim1.SubTrial." "stim2.SubTrial." "Target.ACC.SubTrial." "Target.RT.SubTrial." "Procedure.SubTrial." "antwoord.SubTrial."
"31" 1 20 "left" "female" 1 "Incorrect_Unrelated" "na" "XX*XX" "*" "3" 9 13 13 1 1687 "TrialProcStim" 168
"32" 1 20 "left" "female" 1 "First_Digit_Incorrect" "Geen brug" "XX-X" "-" "1" 1 67 3 1 2320 "TrialProcStim" 54
"33" 1 20 "left" "female" 1 "Last_Digit_Incorrect" "Geen brug" "XXX-XX" "-" "8" 3 398 66 1 2237 "TrialProcStim" 338
"34" 1 20 "left" "female" 1 "Incorrect_Unrelated" "na" "XX*XX" "*" "2" 2 12 12 1 1317 "TrialProcStim" 143
"35" 1 20 "left" "female" 1 "Incorrect_Related" "na" "XX*X" "*" "{SPACE}" 9 24 5 0 0 "TrialProcStim" 96
"36" 1 20 "left" "female" 1 "Middle_Digit_Incorrect" "Geen brug" "XXX-XXX" "-" "9" 9 677 160 1 2396 "TrialProcStim" 527
"37" 1 20 "left" "female" 1 "Second_Digit_Incorrect" "Geen brug" "XX-XX" "-" "2" 2 39 18 1 2666 "TrialProcStim" 29
"38" 1 20 "left" "female" 1 "Correct" "Brug" "XXX-XX" "-" "3" 2 148 56 1 2918 "TrialProcStim" 92
"39" 1 20 "left" "female" 1 "Incorrect_Related" "na" "X*XX" "*" "0" 0 8 31 1 1898 "TrialProcStim" 240
"40" 1 20 "left" "female" 1 "Second_Digit_Incorrect" "Brug" "XXX-XXX" "-" "2" 9 652 559 1 2170 "TrialProcStim" 97
"41" 1 20 "left" "female" 1 "Middle_Digit_Incorrect" "Geen brug" "XXX-XXX" "-" "3" 9 784 431 0 2656 "TrialProcStim" 343
"42" 1 20 "left" "female" 1 "Second_Digit_Incorrect" "Geen brug" "XX-X" "-" "1" 1 45 4 1 2052 "TrialProcStim" 42
"43" 1 20 "left" "female" 1 "Last_Digit_Incorrect" "Geen brug" "XXX-XXX" "-" "{SPACE}" 2 677 160 0 0 "TrialProcStim" 513
"44" 1 20 "left" "female" 1 "Correct" "na" "XX*XX" "*" "2" 9 13 13 1 1915 "TrialProcStim" 169
"45" 1 20 "left" "female" 1 "Incorrect_Unrelated" "na" "XX*X" "*" "3" 9 24 5 1 1726 "TrialProcStim" 119
"46" 1 20 "left" "female" 1 "First_Digit_Incorrect" "Brug" "XX-X" "-" "1" 1 45 9 1 2699 "TrialProcStim" 26
"47" 1 20 "left" "female" 1 "Last_Digit_Incorrect" "Geen brug" "XXX-XXX" "-" "3" 2 495 244 1 1786 "TrialProcStim" 259
"48" 1 20 "left" "female" 1 "Second_Digit_Incorrect" "Brug" "XXX-XX" "-" "8" 3 132 55 1 2769 "TrialProcStim" 73
"49" 1 20 "left" "female" 1 "Correct" "Brug" "XX-XX" "-" "3" 8 46 27 0 2037 "TrialProcStim" 19
"50" 1 20 "left" "female" 1 "Correct" "Geen brug" "XX-X" "-" "1" 1 99 8 1 1438 "TrialProcStim" 91
"51" 1 20 "left" "female" 1 "Second_Digit_Incorrect" "Geen brug" "XX-X" "-" "{SPACE}" 1 67 3 0 0 "TrialProcStim" 66
"52" 1 20 "left" "female" 1 "First_Digit_Incorrect" "Geen brug" "XX-XX" "-" "3" 2 98 64 0 1613 "TrialProcStim" 24
"53" 1 20 "left" "female" 1 "Correct" "na" "XX*XX" "*" "0" 0 15 31 0 1967 "TrialProcStim" 465
"54" 1 20 "left" "female" 1 "Incorrect_Unrelated" "na" "XX*X" "*" "0" 0 61 8 1 1793 "TrialProcStim" 489
"55" 1 20 "left" "female" 1 "Correct" "Geen brug" "XX-XX" "-" "3" 2 39 18 1 2278 "TrialProcStim" 21
"56" 1 20 "left" "female" 1 "Correct" "Geen brug" "XXX-XXX" "-" "9" 9 495 244 0 1266 "TrialProcStim" 251
"57" 1 20 "left" "female" 1 "First_Digit_Incorrect" "Brug" "XX-XX" "-" "9" 8 81 37 0 1625 "TrialProcStim" 54
"58" 1 20 "left" "female" 1 "Correct" "Brug" "XX-X" "-" "1" 1 51 9 1 1857 "TrialProcStim" 42
"59" 1 20 "left" "female" 1 "Incorrect_Related" "na" "XX*XX" "*" "3" 8 14 14 1 1766 "TrialProcStim" 182
"60" 1 20 "left" "female" 1 "Last_Digit_Incorrect" "Geen brug" "XXX-XX" "-" "8" 8 465 22 1 1850 "TrialProcStim" 447
"61" 1 20 "left" "female" 1 "Middle_Digit_Incorrect" "Geen brug" "XXX-XX" "-" "8" 8 663 22 1 1178 "TrialProcStim" 631
"62" 1 20 "left" "female" 1 "First_Digit_Incorrect" "Geen brug" "XX-XX" "-" "8" 3 58 16 1 856 "TrialProcStim" 32
"63" 1 20 "left" "female" 1 "Last_Digit_Incorrect" "Geen brug" "XXX-XX" "-" "8" 8 663 22 1 638 "TrialProcStim" 649
"64" 1 20 "left" "female" 1 "Last_Digit_Incorrect" "Geen brug" "XXX-XXX" "-" "8" 9 888 574 1 1270 "TrialProcStim" 316
"65" 1 20 "left" "female" 1 "First_Digit_Incorrect" "Brug" "XX-XX" "-" "8" 8 35 17 1 575 "TrialProcStim" 28
"66" 1 20 "left" "female" 1 "First_Digit_Incorrect" "Brug" "XXX-XX" "-" "8" 9 132 55 1 1172 "TrialProcStim" 87
"67" 1 20 "left" "female" 1 "First_Digit_Incorrect" "Geen brug" "XX-X" "-" "1" 1 59 1 1 1794 "TrialProcStim" 48
"68" 1 20 "left" "female" 1 "First_Digit_Incorrect" "Brug" "XXX-XX" "-" "3" 8 148 56 1 1788 "TrialProcStim" 82
"69" 1 20 "left" "female" 1 "Correct" "na" "XX*XX" "*" "1" 8 11 11 1 1606 "TrialProcStim" 121
"70" 1 20 "left" "female" 1 "Correct" "Brug" "XXX-XXX" "-" "3" 8 652 559 0 1439 "TrialProcStim" 93
"71" 1 20 "left" "female" 1 "Incorrect_Related" "na" "XX*XX" "*" "0" 0 15 31 1 1916 "TrialProcStim" 480
"72" 1 20 "left" "female" 1 "Second_Digit_Incorrect" "Geen brug" "XX-XX" "-" "8" 3 82 71 1 2033 "TrialProcStim" 19
"73" 1 20 "left" "female" 1 "Second_Digit_Incorrect" "Brug" "XX-XX" "-" "8" 8 52 16 1 1294 "TrialProcStim" 34
"74" 1 20 "left" "female" 1 "Middle_Digit_Incorrect" "Geen brug" "XXX-XX" "-" "9" 8 599 63 1 699 "TrialProcStim" 553
"75" 1 20 "left" "female" 1 "Incorrect_Related" "na" "XX*XX" "*" "0" 0 25 18 1 1720 "TrialProcStim" 475
"76" 1 20 "left" "female" 1 "Incorrect_Unrelated" "na" "XX*XX" "*" "0" 0 15 31 1 930 "TrialProcStim" 466
"77" 1 20 "left" "female" 1 "First_Digit_Incorrect" "Brug" "XX-X" "-" "1" 2 71 9 1 2491 "TrialProcStim" 52
"78" 1 20 "left" "female" 1 "Correct" "na" "XX*X" "*" "0" 0 15 7 0 2562 "TrialProcStim" 105
"79" 1 20 "left" "female" 1 "First_Digit_Incorrect" "Geen brug" "XX-XX" "-" "9" 8 39 18 1 1226 "TrialProcStim" 11
"80" 1 20 "left" "female" 1 "Correct" "na" "XX*XX" "*" "0" 0 25 18 0 1288 "TrialProcStim" 450
"81" 1 20 "left" "female" 1 "Correct" "na" "XX*XX" "*" "2" 9 12 12 1 2197 "TrialProcStim" 144
"82" 1 20 "left" "female" 1 "First_Digit_Incorrect" "Brug" "XXX-XXX" "-" "8" 9 452 369 1 2706 "TrialProcStim" 93
"83" 1 20 "left" "female" 1 "Correct" "na" "XX*X" "*" "0" 0 61 8 0 868 "TrialProcStim" 488
"84" 1 20 "left" "female" 1 "Second_Digit_Incorrect" "Brug" "XX-X" "-" "1" 2 88 9 1 2785 "TrialProcStim" 71
"85" 1 20 "left" "female" 1 "Correct" "Geen brug" "XX-X" "-" "1" 1 38 2 1 2331 "TrialProcStim" 36
"86" 1 20 "left" "female" 1 "Incorrect_Unrelated" "na" "X*XX" "*" "0" 0 8 31 0 2123 "TrialProcStim" 247
"87" 1 20 "left" "female" 1 "Second_Digit_Incorrect" "Geen brug" "XX-XX" "-" "2" 2 46 12 0 1622 "TrialProcStim" 36
"88" 1 20 "left" "female" 1 "Last_Digit_Incorrect" "Geen brug" "XXX-XX" "-" "3" 3 279 45 0 2663 "TrialProcStim" 236
"89" 1 20 "left" "female" 1 "First_Digit_Incorrect" "Brug" "XX-X" "-" "2" 2 94 8 0 2263 "TrialProcStim" 76
"90" 1 20 "left" "female" 1 "Correct" "Geen brug" "XXX-XX" "-" "3" 2 599 63 0 1383 "TrialProcStim" 563
"91" 1 20 "left" "female" 1 "Second_Digit_Incorrect" "Brug" "XX-X" "-" "1" 1 42 5 1 1614 "TrialProcStim" 33
"92" 1 20 "left" "female" 1 "Second_Digit_Incorrect" "Brug" "XXX-XXX" "-" "8" 9 254 188 1 969 "TrialProcStim" 64
"93" 1 20 "left" "female" 1 "Second_Digit_Incorrect" "Geen brug" "XX-XX" "-" "9" 2 64 12 1 1762 "TrialProcStim" 58
"94" 1 20 "left" "female" 1 "Incorrect_Unrelated" "na" "XX*X" "*" "2" 0 16 4 1 1685 "TrialProcStim" 65
"95" 1 20 "left" "female" 1 "Incorrect_Unrelated" "na" "X*XX" "*" "9" 9 7 21 1 1736 "TrialProcStim" 146
"96" 1 20 "left" "female" 1 "First_Digit_Incorrect" "Geen brug" "XX-X" "-" "1" 1 38 2 1 1262 "TrialProcStim" 26
"97" 1 20 "left" "female" 1 "Correct" "Geen brug" "XXX-XX" "-" "9" 9 398 66 0 1108 "TrialProcStim" 332
"98" 1 20 "left" "female" 1 "First_Digit_Incorrect" "Brug" "XX-X" "-" "{SPACE}" 1 51 9 0 0 "TrialProcStim" 32
"99" 1 20 "left" "female" 1 "Incorrect_Unrelated" "na" "X*XX" "*" "9" 9 9 24 1 1314 "TrialProcStim" 215
"100" 1 20 "left" "female" 1 "Second_Digit_Incorrect" "Brug" "XX-XX" "-" "9" 9 91 57 1 1149 "TrialProcStim" 36
"101" 1 20 "left" "female" 1 "Correct" "Brug" "XX-X" "-" "2" 2 45 9 1 2218 "TrialProcStim" 36
"102" 1 20 "left" "female" 1 "Second_Digit_Incorrect" "Brug" "XXX-XXX" "-" "9" 9 537 444 1 616 "TrialProcStim" 97
"103" 1 20 "left" "female" 1 "Middle_Digit_Incorrect" "Geen brug" "XXX-XXX" "-" "9" 9 989 577 1 936 "TrialProcStim" 422
"104" 1 20 "left" "female" 1 "Second_Digit_Incorrect" "Brug" "XXX-XX" "-" "9" 9 123 66 1 839 "TrialProcStim" 53
"105" 1 20 "left" "female" 1 "Middle_Digit_Incorrect" "Geen brug" "XXX-XXX" "-" "8" 8 576 225 1 1406 "TrialProcStim" 341
"106" 1 20 "left" "female" 1 "Second_Digit_Incorrect" "Brug" "XX-XX" "-" "8" 8 75 26 1 1646 "TrialProcStim" 41
"107" 1 20 "left" "female" 1 "First_Digit_Incorrect" "Brug" "XXX-XXX" "-" "8" 8 882 795 1 513 "TrialProcStim" 77
"108" 1 20 "left" "female" 1 "Correct" "na" "X*XX" "*" "0" 0 3 46 0 1687 "TrialProcStim" 138
"109" 1 20 "left" "female" 1 "First_Digit_Incorrect" "Brug" "XXX-XXX" "-" "9" 8 537 444 1 839 "TrialProcStim" 83
"110" 1 20 "left" "female" 1 "Correct" "Geen brug" "XXX-XX" "-" "0" 9 888 62 0 342 "TrialProcStim" 826
"111" 1 20 "left" "female" 1 "Second_Digit_Incorrect" "Brug" "XX-XX" "-" "3" 2 32 15 0 1170 "TrialProcStim" 13
"112" 1 20 "left" "female" 1 "Correct" "Geen brug" "XXX-XXX" "-" "3" 8 784 431 1 2663 "TrialProcStim" 353
"113" 1 20 "left" "female" 1 "Correct" "Brug" "XXX-XX" "-" "8" 8 132 55 0 1901 "TrialProcStim" 77
"114" 1 20 "left" "female" 1 "Second_Digit_Incorrect" "Brug" "XX-X" "-" "8" 8 45 9 1 705 "TrialProcStim" 34
"115" 1 20 "left" "female" 1 "Middle_Digit_Incorrect" "Geen brug" "XXX-XX" "-" "8" 8 963 52 1 488 "TrialProcStim" 921
"116" 1 20 "left" "female" 1 "Incorrect_Unrelated" "na" "X*XX" "*" "9" 0 5 29 1 1009 "TrialProcStim" 146
"117" 1 20 "left" "female" 1 "Correct" "Geen brug" "XX-X" "-" "1" 1 45 4 1 1112 "TrialProcStim" 41
"118" 1 20 "left" "female" 1 "Correct" "na" "XX*XX" "*" "2" 2 14 14 0 1632 "TrialProcStim" 196
"119" 1 20 "left" "female" 1 "Last_Digit_Incorrect" "Geen brug" "XXX-XXX" "-" "9" 8 989 577 1 848 "TrialProcStim" 418
"120" 1 20 "left" "female" 1 "Correct" "Brug" "XXX-XXX" "-" "8" 8 254 188 0 395 "TrialProcStim" 66
"121" 1 20 "left" "female" 1 "Last_Digit_Incorrect" "Geen brug" "XXX-XXX" "-" "8" 8 784 431 1 359 "TrialProcStim" 357
"122" 1 20 "left" "female" 1 "Incorrect_Unrelated" "na" "X*XX" "*" "9" 0 6 16 1 1884 "TrialProcStim" 97
"123" 1 20 "left" "female" 1 "Correct" "Geen brug" "XXX-XXX" "-" "9" 9 888 574 0 1016 "TrialProcStim" 314
"124" 1 20 "left" "female" 1 "First_Digit_Incorrect" "Geen brug" "XX-XX" "-" "8" 8 72 51 0 1973 "TrialProcStim" 11
"125" 1 20 "left" "female" 1 "Incorrect_Related" "na" "XX*XX" "*" "0" 0 50 21 1 543 "TrialProcStim" 1000
"126" 1 20 "left" "female" 1 "Correct" "Geen brug" "XXX-XXX" "-" "9" 9 989 577 0 1769 "TrialProcStim" 412
"127" 1 20 "left" "female" 1 "Middle_Digit_Incorrect" "Geen brug" "XXX-XXX" "-" "9" 9 339 111 1 369 "TrialProcStim" 218
"128" 1 20 "left" "female" 1 "Correct" "na" "XX*X" "*" "1" 1 10 9 1 905 "TrialProcStim" 90
"129" 1 20 "left" "female" 1 "Correct" "Brug" "XX-X" "-" "1" 2 66 7 1 1152 "TrialProcStim" 59
"130" 1 20 "left" "female" 1 "Middle_Digit_Incorrect" "Geen brug" "XXX-XXX" "-" "0" 9 888 574 1 2239 "TrialProcStim" 304
"131" 1 20 "left" "female" 1 "Correct" "Geen brug" "XX-X" "-" "1" 1 67 3 1 823 "TrialProcStim" 64
"132" 1 20 "left" "female" 1 "Second_Digit_Incorrect" "Geen brug" "XX-X" "-" "1" 2 58 6 1 1413 "TrialProcStim" 51
"133" 1 20 "left" "female" 1 "Second_Digit_Incorrect" "Geen brug" "XX-X" "-" "1" 1 99 8 1 1601 "TrialProcStim" 92
"134" 1 20 "left" "female" 1 "Correct" "Brug" "XX-XX" "-" "8" 9 66 29 0 1319 "TrialProcStim" 37
"135" 1 20 "left" "female" 1 "Correct" "Geen brug" "XX-XX" "-" "8" 9 72 51 0 1665 "TrialProcStim" 21
"136" 1 20 "left" "female" 1 "First_Digit_Incorrect" "Brug" "XXX-XX" "-" "8" 9 105 22 0 1687 "TrialProcStim" 93
"137" 1 20 "left" "female" 1 "Correct" "Brug" "XXX-XX" "-" "8" 9 123 66 0 1386 "TrialProcStim" 57
"138" 1 20 "left" "female" 1 "Incorrect_Related" "na" "XX*XX" "*" "0" 0 25 11 1 804 "TrialProcStim" 250
"139" 1 20 "left" "female" 1 "Last_Digit_Incorrect" "Geen brug" "XXX-XXX" "-" "8" 9 576 225 1 530 "TrialProcStim" 359
"140" 1 20 "left" "female" 1 "First_Digit_Incorrect" "Brug" "XX-XX" "-" "8" 9 46 27 1 451 "TrialProcStim" 29
"141" 1 20 "left" "female" 1 "Second_Digit_Incorrect" "Brug" "XXX-XX" "-" "8" 9 119 52 0 750 "TrialProcStim" 63
"142" 1 20 "left" "female" 1 "Incorrect_Unrelated" "na" "XX*XX" "*" "8" 0 25 18 1 1265 "TrialProcStim" 451
"143" 1 20 "left" "female" 1 "First_Digit_Incorrect" "Brug" "XXX-XXX" "-" "8" 9 652 559 1 464 "TrialProcStim" 83
"144" 1 20 "left" "female" 1 "Correct" "na" "XX*X" "*" "3" 2 55 3 0 1480 "TrialProcStim" 165
"145" 1 20 "left" "female" 1 "First_Digit_Incorrect" "Brug" "XXX-XXX" "-" "8" 9 263 177 1 1376 "TrialProcStim" 96
"146" 1 20 "left" "female" 1 "Second_Digit_Incorrect" "Brug" "XX-X" "-" "1" 2 51 9 1 1802 "TrialProcStim" 48
"147" 1 20 "left" "female" 1 "Second_Digit_Incorrect" "Geen brug" "XX-X" "-" "1" 1 85 2 1 2231 "TrialProcStim" 82
"148" 1 20 "left" "female" 1 "Second_Digit_Incorrect" "Brug" "XX-XX" "-" "8" 0 46 27 1 646 "TrialProcStim" 11
"149" 1 20 "left" "female" 1 "Correct" "Brug" "XXX-XX" "-" "8" 9 156 63 0 332 "TrialProcStim" 93
"150" 1 20 "left" "female" 1 "First_Digit_Incorrect" "Brug" "XXX-XXX" "-" "8" 9 326 253 1 675 "TrialProcStim" 83
"151" 1 20 "left" "female" 1 "Incorrect_Related" "na" "X*XX" "*" "8" 0 2 98 1 705 "TrialProcStim" 198
"152" 1 20 "left" "female" 1 "Second_Digit_Incorrect" "Brug" "XX-X" "-" "8" 2 94 8 1 1711 "TrialProcStim" 84
"153" 1 20 "left" "female" 1 "Correct" "Geen brug" "XX-XX" "-" "9" 0 58 16 0 431 "TrialProcStim" 42
"154" 1 20 "left" "female" 1 "Correct" "Geen brug" "XX-X" "-" "1" 1 59 1 1 1651 "TrialProcStim" 58
"155" 1 20 "left" "female" 1 "Correct" "Geen brug" "XX-XX" "-" "8" 9 82 71 0 1035 "TrialProcStim" 11
"156" 1 20 "left" "female" 1 "Correct" "Brug" "XXX-XXX" "-" "9" 9 326 253 0 820 "TrialProcStim" 73
"157" 1 20 "left" "female" 1 "Second_Digit_Incorrect" "Brug" "XXX-XXX" "-" "9" 9 882 795 1 665 "TrialProcStim" 83
"158" 1 20 "left" "female" 1 "First_Digit_Incorrect" "Geen brug" "XX-XX" "-" "3" 2 64 12 0 1350 "TrialProcStim" 42
"159" 1 20 "left" "female" 1 "Incorrect_Related" "na" "XX*X" "*" "2" 9 16 4 1 1412 "TrialProcStim" 80
"160" 1 20 "left" "female" 1 "Incorrect_Related" "na" "XX*X" "*" "3" 9 87 2 1 2117 "TrialProcStim" 261
"161" 1 20 "left" "female" 1 "First_Digit_Incorrect" "Geen brug" "XX-XX" "-" "8" 9 82 71 1 2202 "TrialProcStim" 21
"162" 1 20 "left" "female" 1 "Middle_Digit_Incorrect" "Geen brug" "XXX-XXX" "-" "9" 9 495 244 1 516 "TrialProcStim" 261
"163" 1 20 "left" "female" 1 "Correct" "Brug" "XX-XX" "-" "9" 9 75 26 0 862 "TrialProcStim" 49
"164" 1 20 "left" "female" 1 "Incorrect_Related" "na" "XX*X" "*" "1" 1 10 9 1 1740 "TrialProcStim" 80
"165" 1 20 "left" "female" 1 "First_Digit_Incorrect" "Geen brug" "XX-XX" "-" "9" 1 46 12 1 712 "TrialProcStim" 24
"166" 1 20 "left" "female" 1 "Correct" "Geen brug" "XX-X" "-" "1" 2 77 5 1 2032 "TrialProcStim" 72
"167" 1 20 "left" "female" 1 "Incorrect_Unrelated" "na" "X*XX" "*" "8" 0 3 46 1 1331 "TrialProcStim" 139
"168" 1 20 "left" "female" 1 "Correct" "Geen brug" "XXX-XX" "-" "8" 9 963 52 0 2897 "TrialProcStim" 911
"169" 1 20 "left" "female" 1 "Second_Digit_Incorrect" "Brug" "XXX-XXX" "-" "8" 9 326 253 1 1182 "TrialProcStim" 77
"170" 1 20 "left" "female" 1 "Correct" "Brug" "XX-X" "-" "2" 2 42 5 1 1361 "TrialProcStim" 37
"171" 1 20 "left" "female" 1 "Second_Digit_Incorrect" "Geen brug" "XX-X" "-" "1" 1 38 2 1 1643 "TrialProcStim" 34
"172" 1 20 "left" "female" 1 "Correct" "na" "XX*X" "*" "9" 0 87 2 0 993 "TrialProcStim" 174
"173" 1 20 "left" "female" 1 "First_Digit_Incorrect" "Brug" "XXX-XXX" "-" "8" 9 254 188 0 1055 "TrialProcStim" 76
"174" 1 20 "left" "female" 1 "Incorrect_Unrelated" "na" "XX*X" "*" "1" 1 10 9 1 1753 "TrialProcStim" 89
"175" 1 20 "left" "female" 1 "Correct" "Geen brug" "XXX-XXX" "-" "9" 9 677 160 0 389 "TrialProcStim" 517
"176" 1 20 "left" "female" 1 "Correct" "Geen brug" "XX-XX" "-" "9" 8 98 64 0 1012 "TrialProcStim" 34
"177" 1 20 "left" "female" 1 "Correct" "na" "XX*X" "*" "8" 9 16 4 0 1383 "TrialProcStim" 64
"178" 1 20 "left" "female" 1 "Incorrect_Related" "na" "XX*X" "*" "8" 0 75 6 1 545 "TrialProcStim" 525
"179" 1 20 "left" "female" 1 "First_Digit_Incorrect" "Brug" "XXX-XX" "-" "8" 9 169 85 1 383 "TrialProcStim" 94
"180" 1 20 "left" "female" 1 "Second_Digit_Incorrect" "Geen brug" "XX-XX" "-" "8" 9 72 51 1 276 "TrialProcStim" 29
"181" 1 20 "left" "female" 1 "Correct" "Brug" "XXX-XX" "-" "8" 9 105 22 0 1335 "TrialProcStim" 83
"182" 1 20 "left" "female" 1 "Correct" "na" "X*XX" "*" "8" 0 2 98 1 474 "TrialProcStim" 196
"183" 1 20 "left" "female" 1 "Incorrect_Related" "na" "X*XX" "*" "8" 0 7 21 1 629 "TrialProcStim" 140
"184" 1 20 "left" "female" 1 "First_Digit_Incorrect" "Geen brug" "XX-X" "-" "1" 1 85 2 1 1320 "TrialProcStim" 73
"185" 1 20 "left" "female" 1 "Correct" "Brug" "XXX-XXX" "-" "8" 9 882 795 0 612 "TrialProcStim" 87
"186" 1 20 "left" "female" 1 "First_Digit_Incorrect" "Brug" "XXX-XX" "-" "8" 9 172 99 0 920 "TrialProcStim" 83
"187" 1 20 "left" "female" 1 "Correct" "Geen brug" "XXX-XX" "-" "8" 9 663 22 1 277 "TrialProcStim" 641
"188" 1 20 "left" "female" 1 "Correct" "na" "X*XX" "*" "8" 0 5 29 0 364 "TrialProcStim" 145
"189" 1 20 "left" "female" 1 "Incorrect_Related" "na" "XX*XX" "*" "2" 2 11 11 1 1293 "TrialProcStim" 132
"190" 1 20 "left" "female" 1 "Correct" "na" "XX*XX" "*" "8" 0 50 21 1 2328 "TrialProcStim" 1050
"191" 1 20 "left" "female" 1 "Second_Digit_Incorrect" "Brug" "XXX-XX" "-" "8" 9 169 85 1 375 "TrialProcStim" 86
"192" 1 20 "left" "female" 1 "Second_Digit_Incorrect" "Brug" "XXX-XX" "-" "8" 9 105 22 1 745 "TrialProcStim" 87
"193" 1 20 "left" "female" 1 "First_Digit_Incorrect" "Brug" "XX-X" "-" "1" 2 42 5 1 1330 "TrialProcStim" 27
"194" 1 20 "left" "female" 1 "Correct" "Geen brug" "XXX-XX" "-" "9" 9 279 45 0 575 "TrialProcStim" 234
"195" 1 20 "left" "female" 1 "Correct" "Brug" "XX-XX" "-" "9" 9 32 15 0 331 "TrialProcStim" 17
"196" 1 20 "left" "female" 1 "Last_Digit_Incorrect" "Geen brug" "XXX-XXX" "-" "8" 9 479 105 1 462 "TrialProcStim" 376
"197" 1 20 "left" "female" 1 "Correct" "Brug" "XXX-XX" "-" "8" 9 169 85 0 411 "TrialProcStim" 84
"198" 1 20 "left" "female" 1 "Last_Digit_Incorrect" "Geen brug" "XXX-XX" "-" "8" 9 599 63 1 302 "TrialProcStim" 567
"199" 1 20 "left" "female" 1 "Second_Digit_Incorrect" "Brug" "XXX-XXX" "-" "8" 9 263 177 1 338 "TrialProcStim" 84
"200" 1 20 "left" "female" 1 "Correct" "Geen brug" "XXX-XXX" "-" "8" 9 576 225 0 259 "TrialProcStim" 351
"201" 1 20 "left" "female" 1 "Last_Digit_Incorrect" "Geen brug" "XXX-XX" "-" "8" 9 888 62 1 220 "TrialProcStim" 824
"202" 1 20 "left" "female" 1 "Correct" "Brug" "XX-X" "-" "2" 2 94 8 1 1712 "TrialProcStim" 86
"203" 1 20 "left" "female" 1 "Correct" "Geen brug" "XX-X" "-" "1" 1 85 2 1 1039 "TrialProcStim" 83
"204" 1 20 "left" "female" 1 "Second_Digit_Incorrect" "Brug" "XX-XX" "-" "3" 9 66 29 0 783 "TrialProcStim" 33
"205" 1 20 "left" "female" 1 "Incorrect_Related" "na" "XX*XX" "*" "2" 2 12 12 1 1745 "TrialProcStim" 132
"206" 1 20 "left" "female" 1 "Middle_Digit_Incorrect" "Geen brug" "XXX-XX" "-" "8" 9 774 53 1 736 "TrialProcStim" 711
"207" 1 20 "left" "female" 1 "Second_Digit_Incorrect" "Brug" "XX-XX" "-" "9" 9 81 37 1 434 "TrialProcStim" 46
"208" 1 20 "left" "female" 1 "Correct" "Brug" "XXX-XXX" "-" "8" 9 788 699 0 288 "TrialProcStim" 89
"209" 1 20 "left" "female" 1 "First_Digit_Incorrect" "Brug" "XX-XX" "-" "8" 9 91 57 0 324 "TrialProcStim" 24
"210" 1 20 "left" "female" 1 "Second_Digit_Incorrect" "Brug" "XXX-XX" "-" "3" 9 156 63 0 652 "TrialProcStim" 97
"211" 1 20 "left" "female" 1 "Correct" "Brug" "XX-X" "-" "2" 2 31 9 1 1274 "TrialProcStim" 22
"212" 1 20 "left" "female" 1 "Correct" "na" "XX*X" "*" "3" 9 24 5 0 1175 "TrialProcStim" 120
"213" 1 20 "left" "female" 1 "Middle_Digit_Incorrect" "Geen brug" "XXX-XX" "-" "3" 9 465 22 1 782 "TrialProcStim" 453
"214" 1 20 "left" "female" 1 "Incorrect_Unrelated" "na" "XX*X" "*" "9" 0 87 2 1 729 "TrialProcStim" 175
"215" 1 20 "left" "female" 1 "Correct" "Brug" "XX-X" "-" "3" 1 88 9 1 1898 "TrialProcStim" 79
"216" 1 20 "left" "female" 1 "Correct" "Brug" "XXX-XXX" "-" "8" 9 452 369 0 562 "TrialProcStim" 83
"217" 1 20 "left" "female" 1 "Correct" "na" "XX*XX" "*" "9" 0 25 11 0 316 "TrialProcStim" 275
"218" 1 20 "left" "female" 1 "Correct" "Brug" "XXX-XX" "-" "8" 9 119 52 0 478 "TrialProcStim" 67
"219" 1 20 "left" "female" 1 "Incorrect_Related" "na" "X*XX" "*" "8" 0 4 56 1 1518 "TrialProcStim" 220
"220" 1 20 "left" "female" 1 "Correct" "na" "X*XX" "*" "8" 9 9 24 0 1063 "TrialProcStim" 216
"221" 1 20 "left" "female" 1 "First_Digit_Incorrect" "Brug" "XX-X" "-" "1" 2 66 7 1 1686 "TrialProcStim" 49
"222" 1 20 "left" "female" 1 "First_Digit_Incorrect" "Brug" "XXX-XXX" "-" "8" 9 788 699 1 826 "TrialProcStim" 79
"223" 1 20 "left" "female" 1 "Correct" "na" "X*XX" "*" "8" 0 4 56 1 614 "TrialProcStim" 224
"224" 1 20 "left" "female" 1 "Correct" "Geen brug" "XX-XX" "-" "8" 9 64 12 0 321 "TrialProcStim" 52
"225" 1 20 "left" "female" 1 "Incorrect_Unrelated" "na" "XX*XX" "*" "1" 2 11 11 1 1161 "TrialProcStim" 122
"226" 1 20 "left" "female" 1 "Incorrect_Unrelated" "na" "X*XX" "*" "8" 9 4 56 1 1981 "TrialProcStim" 223
"227" 1 20 "left" "female" 1 "Incorrect_Unrelated" "na" "X*XX" "*" "8" 9 2 98 1 401 "TrialProcStim" 197
"228" 1 20 "left" "female" 1 "Incorrect_Unrelated" "na" "XX*XX" "*" "8" 9 25 11 1 280 "TrialProcStim" 274
"229" 1 20 "left" "female" 1 "Incorrect_Related" "na" "X*XX" "*" "2" 0 3 46 1 2407 "TrialProcStim" 141
"230" 1 20 "left" "female" 1 "Incorrect_Related" "na" "XX*X" "*" "3" 2 55 3 1 2490 "TrialProcStim" 220
"231" 1 20 "left" "female" 1 "First_Digit_Incorrect" "Brug" "XX-XX" "-" "8" 9 52 16 1 345 "TrialProcStim" 26
"232" 1 20 "left" "female" 1 "Incorrect_Unrelated" "na" "XX*X" "*" "8" 0 75 6 1 994 "TrialProcStim" 451
"233" 1 20 "left" "female" 1 "Second_Digit_Incorrect" "Brug" "XX-X" "-" "8" 9 66 7 1 340 "TrialProcStim" 51
"234" 1 20 "left" "female" 1 "Incorrect_Related" "na" "X*XX" "*" "8" 0 9 24 1 664 "TrialProcStim" 207
"235" 1 20 "left" "female" 1 "Second_Digit_Incorrect" "Brug" "XX-X" "-" "8" 2 31 9 0 1879 "TrialProcStim" 28
"236" 1 20 "left" "female" 1 "Correct" "Geen brug" "XX-XX" "-" "8" 9 79 68 0 447 "TrialProcStim" 11
"237" 1 20 "left" "female" 1 "First_Digit_Incorrect" "Geen brug" "XX-X" "-" "1" 1 77 5 1 2134 "TrialProcStim" 62
"238" 1 20 "left" "female" 1 "Incorrect_Related" "na" "XX*X" "*" "9" 0 61 8 1 497 "TrialProcStim" 549
"239" 1 20 "left" "female" 1 "First_Digit_Incorrect" "Geen brug" "XX-X" "-" "1" 1 58 6 1 1552 "TrialProcStim" 42
"240" 1 20 "left" "female" 1 "Second_Digit_Incorrect" "Brug" "XXX-XXX" "-" "8" 9 452 369 1 280 "TrialProcStim" 87
"241" 1 20 "left" "female" 1 "Correct" "Geen brug" "XX-X" "-" "1" 1 58 6 1 1122 "TrialProcStim" 52
"242" 1 20 "left" "female" 1 "First_Digit_Incorrect" "Brug" "XX-X" "-" "1" 1 88 9 1 1439 "TrialProcStim" 69
"243" 1 20 "left" "female" 1 "Correct" "Brug" "XX-XX" "-" "9" 8 91 57 0 514 "TrialProcStim" 34
"244" 1 20 "left" "female" 1 "Middle_Digit_Incorrect" "Geen brug" "XXX-XX" "-" "8" 9 279 45 1 436 "TrialProcStim" 224
"245" 1 20 "left" "female" 1 "Correct" "Geen brug" "XXX-XXX" "-" "3" 9 479 105 1 978 "TrialProcStim" 374
"246" 1 20 "left" "female" 1 "Last_Digit_Incorrect" "Geen brug" "XXX-XX" "-" "3" 9 963 52 1 634 "TrialProcStim" 919
"247" 1 20 "left" "female" 1 "Correct" "na" "X*XX" "*" "9" 0 7 21 0 464 "TrialProcStim" 147
"248" 1 20 "left" "female" 1 "Correct" "Geen brug" "XXX-XX" "-" "8" 9 465 22 0 435 "TrialProcStim" 443
"249" 1 20 "left" "female" 1 "Correct" "Brug" "XXX-XX" "-" "8" 9 172 99 0 240 "TrialProcStim" 73
"250" 1 20 "left" "female" 1 "First_Digit_Incorrect" "Geen brug" "XX-XX" "-" "8" 9 79 68 1 174 "TrialProcStim" 21
"251" 1 20 "left" "female" 1 "Middle_Digit_Incorrect" "Geen brug" "XXX-XX" "-" "9" 8 398 66 1 1052 "TrialProcStim" 322
"252" 1 20 "left" "female" 1 "First_Digit_Incorrect" "Brug" "XX-X" "-" "3" 2 31 9 1 1849 "TrialProcStim" 12
"253" 1 20 "left" "female" 1 "Incorrect_Related" "na" "XX*X" "*" "9" 0 15 7 1 1529 "TrialProcStim" 90
"254" 1 20 "left" "female" 1 "Last_Digit_Incorrect" "Geen brug" "XXX-XX" "-" "8" 9 774 53 1 431 "TrialProcStim" 729
"255" 1 20 "left" "female" 1 "Last_Digit_Incorrect" "Geen brug" "XXX-XXX" "-" "8" 9 339 111 1 351 "TrialProcStim" 222
"256" 1 20 "left" "female" 1 "Second_Digit_Incorrect" "Geen brug" "XX-X" "-" "1" 1 59 1 1 1133 "TrialProcStim" 52
"257" 1 20 "left" "female" 1 "Second_Digit_Incorrect" "Brug" "XX-X" "-" "2" 2 71 9 1 2038 "TrialProcStim" 68
"258" 1 20 "left" "female" 1 "Incorrect_Unrelated" "na" "XX*X" "*" "9" 0 55 3 1 307 "TrialProcStim" 166
"259" 1 20 "left" "female" 1 "Incorrect_Related" "na" "X*XX" "*" "8" 9 6 16 1 238 "TrialProcStim" 102
"260" 1 20 "left" "female" 1 "Second_Digit_Incorrect" "Brug" "XXX-XX" "-" "8" 9 148 56 1 275 "TrialProcStim" 98
"261" 1 20 "left" "female" 1 "Middle_Digit_Incorrect" "Geen brug" "XXX-XXX" "-" "8" 9 479 105 1 299 "TrialProcStim" 384
"262" 1 20 "left" "female" 1 "Correct" "Brug" "XXX-XXX" "-" "8" 9 537 444 0 254 "TrialProcStim" 93
"263" 1 20 "left" "female" 1 "Correct" "na" "X*XX" "*" "9" 0 6 16 0 330 "TrialProcStim" 96
"264" 1 20 "left" "female" 1 "Correct" "Brug" "XX-XX" "-" "8" 9 52 16 0 274 "TrialProcStim" 36
"265" 1 20 "left" "female" 1 "Second_Digit_Incorrect" "Geen brug" "XX-XX" "-" "3" 9 79 68 0 244 "TrialProcStim" 19
"266" 1 20 "left" "female" 1 "Correct" "Brug" "XX-X" "-" "1" 2 71 9 1 1886 "TrialProcStim" 62
"267" 1 20 "left" "female" 1 "First_Digit_Incorrect" "Brug" "XX-XX" "-" "3" 9 75 26 1 252 "TrialProcStim" 59
"268" 1 20 "left" "female" 1 "Incorrect_Unrelated" "na" "XX*XX" "*" "2" 0 14 14 1 1167 "TrialProcStim" 195
"269" 1 20 "left" "female" 1 "First_Digit_Incorrect" "Brug" "XXX-XX" "-" "2" 9 123 66 1 535 "TrialProcStim" 67
"270" 1 20 "left" "female" 1 "Incorrect_Unrelated" "na" "XX*X" "*" "9" 0 15 7 1 291 "TrialProcStim" 104
"271" 1 20 "left" "female" 1 "Incorrect_Unrelated" "na" "XX*XX" "*" "9" 0 50 21 0 1146 "TrialProcStim" 1049
"272" 1 20 "left" "female" 1 "First_Digit_Incorrect" "Brug" "XX-XX" "-" "3" 9 66 29 1 229 "TrialProcStim" 27
"273" 1 20 "left" "female" 1 "Second_Digit_Incorrect" "Geen brug" "XX-XX" "-" "3" 9 98 64 1 861 "TrialProcStim" 36
"274" 1 20 "left" "female" 1 "First_Digit_Incorrect" "Geen brug" "XX-X" "-" "1" 1 99 8 1 1122 "TrialProcStim" 81
"275" 1 20 "left" "female" 1 "First_Digit_Incorrect" "Brug" "XX-XX" "-" "3" 9 32 15 1 297 "TrialProcStim" 27
"276" 1 20 "left" "female" 1 "First_Digit_Incorrect" "Geen brug" "XX-X" "-" "1" 1 45 4 1 1337 "TrialProcStim" 31
"277" 1 20 "left" "female" 1 "Correct" "Brug" "XX-XX" "-" "3" 9 81 37 0 464 "TrialProcStim" 44
"278" 1 20 "left" "female" 1 "Correct" "na" "X*XX" "*" "9" 0 8 31 0 398 "TrialProcStim" 248
"279" 1 20 "left" "female" 1 "Incorrect_Related" "na" "X*XX" "*" "8" 9 5 29 1 874 "TrialProcStim" 150
"280" 1 20 "left" "female" 1 "Second_Digit_Incorrect" "Geen brug" "XX-XX" "-" "3" 9 58 16 1 292 "TrialProcStim" 48
"281" 1 20 "left" "female" 1 "Correct" "Geen brug" "XXX-XXX" "-" "9" 8 339 111 0 235 "TrialProcStim" 228
"282" 1 20 "left" "female" 1 "Correct" "Brug" "XX-XX" "-" "8" 9 35 17 0 274 "TrialProcStim" 18
"283" 1 20 "left" "female" 1 "Correct" "Geen brug" "XXX-XX" "-" "8" 9 774 53 0 213 "TrialProcStim" 721
"284" 1 20 "left" "female" 1 "Middle_Digit_Incorrect" "Geen brug" "XXX-XX" "-" "8" 9 888 62 1 287 "TrialProcStim" 836
"285" 1 20 "left" "female" 1 "Incorrect_Related" "na" "XX*XX" "*" "8" 0 13 13 1 1733 "TrialProcStim" 156
"286" 1 20 "left" "female" 1 "Second_Digit_Incorrect" "Geen brug" "XX-X" "-" "1" 2 77 5 1 1257 "TrialProcStim" 71
"287" 1 20 "left" "female" 1 "First_Digit_Incorrect" "Brug" "XXX-XX" "-" "8" 9 119 52 1 1483 "TrialProcStim" 77
"288" 1 20 "left" "female" 1 "Correct" "Brug" "XXX-XXX" "-" "3" 9 263 177 0 328 "TrialProcStim" 86
"289" 1 20 "left" "female" 1 "Correct" "Geen brug" "XX-XX" "-" "8" 9 46 12 0 803 "TrialProcStim" 34
"290" 1 20 "left" "female" 1 "First_Digit_Incorrect" "Brug" "XXX-XX" "-" "3" 9 156 63 1 255 "TrialProcStim" 83
"291" 1 20 "left" "female" 1 "Correct" "na" "XX*X" "*" "9" 0 75 6 0 250 "TrialProcStim" 450
"292" 1 20 "left" "female" 1 "Second_Digit_Incorrect" "Brug" "XXX-XX" "-" "8" 9 172 99 1 252 "TrialProcStim" 77
"293" 1 20 "left" "female" 1 "Second_Digit_Incorrect" "Brug" "XXX-XXX" "-" "8" 9 788 699 1 236 "TrialProcStim" 81
"294" 1 20 "left" "female" 1 "Second_Digit_Incorrect" "Brug" "XX-XX" "-" "8" 9 35 17 1 155 "TrialProcStim" 12
"325" 10 20 "right" "female" 2 "First_Digit_Incorrect" "Geen brug" "XX-X" "-" "9" 3 45 4 0 1751 "TrialProcStim" 31
"326" 10 20 "right" "female" 2 "Incorrect_Unrelated" "na" "XX*XX" "*" "3" 3 13 13 0 1875 "TrialProcStim" 168
"327" 10 20 "right" "female" 2 "Incorrect_Related" "na" "XX*X" "*" "3" 3 15 7 1 1594 "TrialProcStim" 90
"328" 10 20 "right" "female" 2 "Middle_Digit_Incorrect" "Geen brug" "XXX-XXX" "-" "8" 8 677 160 0 1677 "TrialProcStim" 527
"329" 10 20 "right" "female" 2 "Last_Digit_Incorrect" "Geen brug" "XXX-XX" "-" "8" 8 465 22 0 1858 "TrialProcStim" 447
"330" 10 20 "right" "female" 2 "Last_Digit_Incorrect" "Geen brug" "XXX-XXX" "-" "2" 9 784 431 0 1867 "TrialProcStim" 357
"331" 10 20 "right" "female" 2 "Correct" "na" "XX*XX" "*" "2" 3 50 21 1 1136 "TrialProcStim" 1050
"332" 10 20 "right" "female" 2 "Middle_Digit_Incorrect" "Geen brug" "XXX-XX" "-" "9" 3 888 62 0 2272 "TrialProcStim" 836
"333" 10 20 "right" "female" 2 "First_Digit_Incorrect" "Brug" "XXX-XX" "-" "3" 8 148 56 0 1607 "TrialProcStim" 82
"334" 10 20 "right" "female" 2 "Second_Digit_Incorrect" "Brug" "XX-X" "-" "0" 2 45 9 0 1517 "TrialProcStim" 34
"335" 10 20 "right" "female" 2 "Correct" "Geen brug" "XXX-XXX" "-" "8" 8 576 225 1 2080 "TrialProcStim" 351
"336" 10 20 "right" "female" 2 "Correct" "Brug" "XXX-XX" "-" "9" 8 105 22 1 2506 "TrialProcStim" 83
"337" 10 20 "right" "female" 2 "Correct" "Brug" "XX-XX" "-" "8" 3 66 29 1 1968 "TrialProcStim" 37
"338" 10 20 "right" "female" 2 "Correct" "Geen brug" "XXX-XX" "-" "8" 8 888 62 0 1530 "TrialProcStim" 826
"339" 10 20 "right" "female" 2 "Correct" "Brug" "XXX-XX" "-" "8" 8 148 56 1 2284 "TrialProcStim" 92
"340" 10 20 "right" "female" 2 "First_Digit_Incorrect" "Brug" "XX-XX" "-" "8" 8 52 16 1 1633 "TrialProcStim" 26
"341" 10 20 "right" "female" 2 "Correct" "na" "XX*X" "*" "8" 8 16 4 1 1164 "TrialProcStim" 64
"342" 10 20 "right" "female" 2 "First_Digit_Incorrect" "Brug" "XXX-XX" "-" "8" 8 119 52 0 1605 "TrialProcStim" 77
"343" 10 20 "right" "female" 2 "Second_Digit_Incorrect" "Brug" "XX-X" "-" "{SPACE}" 8 94 8 0 0 "TrialProcStim" 84
"344" 10 20 "right" "female" 2 "Correct" "Brug" "XX-X" "-" "8" 8 31 9 1 1222 "TrialProcStim" 22
"345" 10 20 "right" "female" 2 "Correct" "na" "X*XX" "*" "3" 8 4 56 0 1552 "TrialProcStim" 224
"346" 10 20 "right" "female" 2 "Correct" "Geen brug" "XXX-XXX" "-" "8" 0 339 111 1 168 "TrialProcStim" 228
"347" 10 20 "right" "female" 2 "Middle_Digit_Incorrect" "Geen brug" "XXX-XX" "-" "8" 3 398 66 1 802 "TrialProcStim" 322
"348" 10 20 "right" "female" 2 "Correct" "na" "XX*X" "*" "8" 3 75 6 0 1943 "TrialProcStim" 450
"349" 10 20 "right" "female" 2 "Middle_Digit_Incorrect" "Geen brug" "XXX-XX" "-" "{SPACE}" 3 599 63 0 0 "TrialProcStim" 553
"350" 10 20 "right" "female" 2 "Second_Digit_Incorrect" "Brug" "XXX-XXX" "-" "8" 8 788 699 0 1910 "TrialProcStim" 81
"351" 10 20 "right" "female" 2 "Correct" "na" "X*XX" "*" "9" 8 9 24 1 2189 "TrialProcStim" 216
"352" 10 20 "right" "female" 2 "First_Digit_Incorrect" "Brug" "XX-X" "-" "9" 8 51 9 0 1186 "TrialProcStim" 32
"353" 10 20 "right" "female" 2 "First_Digit_Incorrect" "Geen brug" "XX-X" "-" "0" 8 38 2 1 2867 "TrialProcStim" 26
"354" 10 20 "right" "female" 2 "Incorrect_Related" "na" "XX*XX" "*" "{SPACE}" 8 13 13 0 0 "TrialProcStim" 156
"355" 10 20 "right" "female" 2 "Incorrect_Related" "na" "XX*XX" "*" "9" 8 14 14 0 1279 "TrialProcStim" 182
"356" 10 20 "right" "female" 2 "Correct" "Brug" "XX-XX" "-" "8" 8 35 17 1 1231 "TrialProcStim" 18
"357" 10 20 "right" "female" 2 "Incorrect_Unrelated" "na" "XX*XX" "*" "3" 8 50 21 1 1801 "TrialProcStim" 1049
"358" 10 20 "right" "female" 2 "First_Digit_Incorrect" "Geen brug" "XX-X" "-" "9" 8 58 6 0 2505 "TrialProcStim" 42
"359" 10 20 "right" "female" 2 "Second_Digit_Incorrect" "Brug" "XX-XX" "-" "8" 3 32 15 0 1733 "TrialProcStim" 13
"360" 10 20 "right" "female" 2 "Second_Digit_Incorrect" "Geen brug" "XX-X" "-" "8" 8 58 6 1 993 "TrialProcStim" 51
"361" 10 20 "right" "female" 2 "Correct" "Brug" "XX-X" "-" "8" 8 51 9 0 504 "TrialProcStim" 42
"362" 10 20 "right" "female" 2 "Second_Digit_Incorrect" "Brug" "XXX-XXX" "-" "8" 8 326 253 0 1117 "TrialProcStim" 77
"363" 10 20 "right" "female" 2 "Second_Digit_Incorrect" "Brug" "XX-X" "-" "8" 3 66 7 0 1754 "TrialProcStim" 51
"364" 10 20 "right" "female" 2 "First_Digit_Incorrect" "Brug" "XXX-XXX" "-" "8" 3 537 444 1 809 "TrialProcStim" 83
"365" 10 20 "right" "female" 2 "First_Digit_Incorrect" "Geen brug" "XX-XX" "-" "3" 8 79 68 1 121 "TrialProcStim" 21
"366" 10 20 "right" "female" 2 "Correct" "na" "X*XX" "*" "8" 8 3 46 0 1079 "TrialProcStim" 138
"367" 10 20 "right" "female" 2 "First_Digit_Incorrect" "Geen brug" "XX-XX" "-" "3" 3 39 18 0 1339 "TrialProcStim" 11
"368" 10 20 "right" "female" 2 "Incorrect_Related" "na" "X*XX" "*" "3" 8 7 21 0 476 "TrialProcStim" 140
"369" 10 20 "right" "female" 2 "Correct" "Geen brug" "XX-X" "-" "8" 8 58 6 1 2392 "TrialProcStim" 52
"370" 10 20 "right" "female" 2 "Second_Digit_Incorrect" "Geen brug" "XX-X" "-" "8" 8 67 3 0 1533 "TrialProcStim" 66
"371" 10 20 "right" "female" 2 "Middle_Digit_Incorrect" "Geen brug" "XXX-XX" "-" "3" 8 279 45 1 1097 "TrialProcStim" 224
"372" 10 20 "right" "female" 2 "Correct" "Geen brug" "XX-X" "-" "0" 8 59 1 1 1200 "TrialProcStim" 58
"373" 10 20 "right" "female" 2 "Second_Digit_Incorrect" "Brug" "XX-XX" "-" "9" 8 91 57 0 1480 "TrialProcStim" 36
"374" 10 20 "right" "female" 2 "First_Digit_Incorrect" "Brug" "XXX-XX" "-" "0" 8 156 63 1 1452 "TrialProcStim" 83
"375" 10 20 "right" "female" 2 "First_Digit_Incorrect" "Geen brug" "XX-X" "-" "0" 8 99 8 0 2172 "TrialProcStim" 81
"376" 10 20 "right" "female" 2 "First_Digit_Incorrect" "Brug" "XX-XX" "-" "0" 8 66 29 1 1573 "TrialProcStim" 27
"377" 10 20 "right" "female" 2 "Correct" "na" "X*XX" "*" "8" 8 8 31 0 1929 "TrialProcStim" 248
"378" 10 20 "right" "female" 2 "First_Digit_Incorrect" "Brug" "XX-XX" "-" "8" 8 75 26 0 1392 "TrialProcStim" 59
"379" 10 20 "right" "female" 2 "First_Digit_Incorrect" "Brug" "XXX-XXX" "-" "3" 8 452 369 0 352 "TrialProcStim" 93
"380" 10 20 "right" "female" 2 "Incorrect_Related" "na" "XX*XX" "*" "8" 8 11 11 0 583 "TrialProcStim" 132
"381" 10 20 "right" "female" 2 "Correct" "Brug" "XXX-XXX" "-" "8" 0 652 559 0 316 "TrialProcStim" 93
"382" 10 20 "right" "female" 2 "Last_Digit_Incorrect" "Geen brug" "XXX-XX" "-" "1" 3 888 62 1 2574 "TrialProcStim" 824
"383" 10 20 "right" "female" 2 "Correct" "Brug" "XXX-XXX" "-" "3" 9 452 369 0 381 "TrialProcStim" 83
"384" 10 20 "right" "female" 2 "Correct" "Geen brug" "XX-XX" "-" "8" 8 98 64 0 224 "TrialProcStim" 34
"385" 10 20 "right" "female" 2 "Correct" "Geen brug" "XX-XX" "-" "9" 8 82 71 1 1458 "TrialProcStim" 11
"386" 10 20 "right" "female" 2 "Correct" "na" "XX*X" "*" "9" 8 87 2 1 823 "TrialProcStim" 174
"387" 10 20 "right" "female" 2 "First_Digit_Incorrect" "Brug" "XXX-XXX" "-" "8" 8 254 188 0 2100 "TrialProcStim" 76
"388" 10 20 "right" "female" 2 "Middle_Digit_Incorrect" "Geen brug" "XXX-XXX" "-" "8" 8 495 244 1 2413 "TrialProcStim" 261
"389" 10 20 "right" "female" 2 "Second_Digit_Incorrect" "Brug" "XXX-XX" "-" "8" 8 156 63 0 1503 "TrialProcStim" 97
"390" 10 20 "right" "female" 2 "Incorrect_Related" "na" "XX*X" "*" "2" 3 75 6 1 2154 "TrialProcStim" 525
"391" 10 20 "right" "female" 2 "Correct" "Geen brug" "XX-XX" "-" "2" 3 64 12 0 870 "TrialProcStim" 52
"392" 10 20 "right" "female" 2 "Second_Digit_Incorrect" "Geen brug" "XX-XX" "-" "3" 8 64 12 1 2788 "TrialProcStim" 58
"393" 10 20 "right" "female" 2 "Second_Digit_Incorrect" "Brug" "XX-XX" "-" "3" 3 35 17 0 538 "TrialProcStim" 12
"394" 10 20 "right" "female" 2 "Correct" "Geen brug" "XX-X" "-" "3" 3 77 5 0 145 "TrialProcStim" 72
"395" 10 20 "right" "female" 2 "Last_Digit_Incorrect" "Geen brug" "XXX-XX" "-" "3" 3 599 63 0 361 "TrialProcStim" 567
"396" 10 20 "right" "female" 2 "First_Digit_Incorrect" "Geen brug" "XX-XX" "-" "3" 3 82 71 1 98 "TrialProcStim" 21
"397" 10 20 "right" "female" 2 "Incorrect_Unrelated" "na" "XX*X" "*" "3" 3 24 5 0 1125 "TrialProcStim" 119
"398" 10 20 "right" "female" 2 "Correct" "Brug" "XXX-XX" "-" "8" 3 156 63 1 1663 "TrialProcStim" 93
"399" 10 20 "right" "female" 2 "Incorrect_Unrelated" "na" "XX*XX" "*" "3" 8 11 11 0 453 "TrialProcStim" 122
"400" 10 20 "right" "female" 2 "Second_Digit_Incorrect" "Geen brug" "XX-XX" "-" "2" 3 79 68 0 2787 "TrialProcStim" 19
"401" 10 20 "right" "female" 2 "Correct" "Brug" "XX-XX" "-" "3" 8 46 27 0 1370 "TrialProcStim" 19
"402" 10 20 "right" "female" 2 "Second_Digit_Incorrect" "Geen brug" "XX-X" "-" "3" 3 77 5 0 657 "TrialProcStim" 71
"403" 10 20 "right" "female" 2 "First_Digit_Incorrect" "Brug" "XXX-XXX" "-" "3" 8 882 795 0 1788 "TrialProcStim" 77
"404" 10 20 "right" "female" 2 "Correct" "na" "XX*XX" "*" "8" 3 15 31 0 421 "TrialProcStim" 465
"405" 10 20 "right" "female" 2 "First_Digit_Incorrect" "Brug" "XX-X" "-" "{SPACE}" 3 66 7 0 0 "TrialProcStim" 49
"406" 10 20 "right" "female" 2 "Middle_Digit_Incorrect" "Geen brug" "XXX-XX" "-" "8" 3 774 53 0 2524 "TrialProcStim" 711
"407" 10 20 "right" "female" 2 "Middle_Digit_Incorrect" "Geen brug" "XXX-XX" "-" "8" 3 465 22 1 2888 "TrialProcStim" 453
"408" 10 20 "right" "female" 2 "First_Digit_Incorrect" "Brug" "XXX-XX" "-" "8" 3 132 55 0 1630 "TrialProcStim" 87
"409" 10 20 "right" "female" 2 "Incorrect_Unrelated" "na" "XX*XX" "*" "8" 3 25 11 0 990 "TrialProcStim" 274
"410" 10 20 "right" "female" 2 "Incorrect_Unrelated" "na" "XX*X" "*" "8" 3 61 8 1 705 "TrialProcStim" 489
"411" 10 20 "right" "female" 2 "Correct" "Brug" "XX-XX" "-" "3" 3 75 26 1 980 "TrialProcStim" 49
"412" 10 20 "right" "female" 2 "First_Digit_Incorrect" "Brug" "XX-X" "-" "9" 8 94 8 0 1569 "TrialProcStim" 76
"413" 10 20 "right" "female" 2 "Correct" "Geen brug" "XXX-XX" "-" "8" 3 774 53 1 261 "TrialProcStim" 721
"414" 10 20 "right" "female" 2 "Incorrect_Related" "na" "XX*XX" "*" "3" 0 12 12 0 202 "TrialProcStim" 132
"415" 10 20 "right" "female" 2 "First_Digit_Incorrect" "Brug" "XX-X" "-" "8" 3 31 9 1 609 "TrialProcStim" 12
"416" 10 20 "right" "female" 2 "First_Digit_Incorrect" "Brug" "XX-X" "-" "2" 9 71 9 0 443 "TrialProcStim" 52
"417" 10 20 "right" "female" 2 "Correct" "Geen brug" "XXX-XX" "-" "3" 8 465 22 0 1027 "TrialProcStim" 443
"418" 10 20 "right" "female" 2 "First_Digit_Incorrect" "Geen brug" "XX-XX" "-" "0" 2 72 51 0 374 "TrialProcStim" 11
"419" 10 20 "right" "female" 2 "Second_Digit_Incorrect" "Brug" "XXX-XX" "-" "3" 3 132 55 0 497 "TrialProcStim" 73
"420" 10 20 "right" "female" 2 "Second_Digit_Incorrect" "Brug" "XX-X" "-" "9" 2 42 5 0 364 "TrialProcStim" 33
"421" 10 20 "right" "female" 2 "Correct" "Brug" "XX-X" "-" "9" 8 42 5 1 2568 "TrialProcStim" 37
"422" 10 20 "right" "female" 2 "First_Digit_Incorrect" "Brug" "XX-X" "-" "8" 2 88 9 0 1948 "TrialProcStim" 69
"423" 10 20 "right" "female" 2 "Incorrect_Related" "na" "X*XX" "*" "8" 3 8 31 0 1776 "TrialProcStim" 240
"424" 10 20 "right" "female" 2 "Second_Digit_Incorrect" "Brug" "XXX-XX" "-" "3" 3 148 56 0 1091 "TrialProcStim" 98
"425" 10 20 "right" "female" 2 "Incorrect_Related" "na" "XX*XX" "*" "3" 3 25 18 0 2149 "TrialProcStim" 475
"426" 10 20 "right" "female" 2 "First_Digit_Incorrect" "Brug" "XXX-XXX" "-" "3" 3 652 559 0 2026 "TrialProcStim" 83
"427" 10 20 "right" "female" 2 "Last_Digit_Incorrect" "Geen brug" "XXX-XX" "-" "3" 8 663 22 1 2310 "TrialProcStim" 649
"428" 10 20 "right" "female" 2 "Correct" "Brug" "XXX-XXX" "-" "8" 8 263 177 1 1825 "TrialProcStim" 86
"429" 10 20 "right" "female" 2 "Second_Digit_Incorrect" "Brug" "XX-XX" "-" "8" 3 46 27 1 620 "TrialProcStim" 11
"430" 10 20 "right" "female" 2 "Correct" "Geen brug" "XX-X" "-" "8" 3 38 2 1 2887 "TrialProcStim" 36
"431" 10 20 "right" "female" 2 "Last_Digit_Incorrect" "Geen brug" "XXX-XXX" "-" "8" 3 339 111 0 2422 "TrialProcStim" 222
"432" 10 20 "right" "female" 2 "Second_Digit_Incorrect" "Brug" "XXX-XXX" "-" "8" 3 537 444 0 1050 "TrialProcStim" 97
"433" 10 20 "right" "female" 2 "Correct" "na" "XX*XX" "*" "3" 3 12 12 0 2182 "TrialProcStim" 144
"434" 10 20 "right" "female" 2 "Incorrect_Unrelated" "na" "X*XX" "*" "3" 3 6 16 1 2292 "TrialProcStim" 97
"435" 10 20 "right" "female" 2 "Correct" "Geen brug" "XXX-XX" "-" "{SPACE}" 3 599 63 0 0 "TrialProcStim" 563
"436" 10 20 "right" "female" 2 "Incorrect_Unrelated" "na" "X*XX" "*" "3" 8 7 21 0 1021 "TrialProcStim" 146
"437" 10 20 "right" "female" 2 "Correct" "Brug" "XXX-XXX" "-" "3" 3 326 253 1 1441 "TrialProcStim" 73
"438" 10 20 "right" "female" 2 "Correct" "Brug" "XX-X" "-" "3" 3 66 7 1 1875 "TrialProcStim" 59
"439" 10 20 "right" "female" 2 "Last_Digit_Incorrect" "Geen brug" "XXX-XXX" "-" "3" 3 495 244 0 1306 "TrialProcStim" 259
"440" 10 20 "right" "female" 2 "Incorrect_Unrelated" "na" "XX*X" "*" "3" 3 75 6 0 237 "TrialProcStim" 451
"441" 10 20 "right" "female" 2 "Correct" "Geen brug" "XXX-XXX" "-" "3" 3 784 431 1 2545 "TrialProcStim" 353
"442" 10 20 "right" "female" 2 "Second_Digit_Incorrect" "Geen brug" "XX-X" "-" "{SPACE}" 3 45 4 0 0 "TrialProcStim" 42
"443" 10 20 "right" "female" 2 "Last_Digit_Incorrect" "Geen brug" "XXX-XXX" "-" "3" 3 479 105 1 936 "TrialProcStim" 376
"444" 10 20 "right" "female" 2 "Incorrect_Related" "na" "XX*XX" "*" "8" 3 50 21 0 271 "TrialProcStim" 1000
"445" 10 20 "right" "female" 2 "Correct" "na" "XX*XX" "*" "3" 3 14 14 0 0 "TrialProcStim" 196
"446" 10 20 "right" "female" 2 "Incorrect_Related" "na" "XX*XX" "*" "3" 3 15 31 1 2750 "TrialProcStim" 480
"447" 10 20 "right" "female" 2 "Correct" "Geen brug" "XX-XX" "-" "8" 1 72 51 1 2785 "TrialProcStim" 21
"448" 10 20 "right" "female" 2 "Second_Digit_Incorrect" "Brug" "XXX-XXX" "-" "3" 3 263 177 0 1942 "TrialProcStim" 84
"449" 10 20 "right" "female" 2 "Last_Digit_Incorrect" "Geen brug" "XXX-XXX" "-" "{SPACE}" 8 888 574 0 0 "TrialProcStim" 316
"450" 10 20 "right" "female" 2 "Incorrect_Related" "na" "XX*X" "*" "8" 8 55 3 1 1841 "TrialProcStim" 220
"451" 10 20 "right" "female" 2 "First_Digit_Incorrect" "Geen brug" "XX-X" "-" "8" 3 67 3 0 1899 "TrialProcStim" 54
"452" 10 20 "right" "female" 2 "Correct" "na" "XX*XX" "*" "3" 8 25 11 0 570 "TrialProcStim" 275
"453" 10 20 "right" "female" 2 "Incorrect_Unrelated" "na" "XX*X" "*" "8" 3 15 7 0 1137 "TrialProcStim" 104
"454" 10 20 "right" "female" 2 "Incorrect_Unrelated" "na" "XX*XX" "*" "3" 8 25 18 1 1768 "TrialProcStim" 451
"455" 10 20 "right" "female" 2 "Correct" "Geen brug" "XX-XX" "-" "3" 8 46 12 0 1503 "TrialProcStim" 34
"456" 10 20 "right" "female" 2 "Incorrect_Unrelated" "na" "X*XX" "*" "3" 3 8 31 0 1081 "TrialProcStim" 247
"457" 10 20 "right" "female" 2 "Correct" "Brug" "XXX-XX" "-" "1" 8 119 52 1 290 "TrialProcStim" 67
"458" 10 20 "right" "female" 2 "Second_Digit_Incorrect" "Geen brug" "XX-XX" "-" "3" 8 39 18 1 479 "TrialProcStim" 29
"459" 10 20 "right" "female" 2 "Incorrect_Related" "na" "XX*X" "*" "8" 8 61 8 1 193 "TrialProcStim" 549
"460" 10 20 "right" "female" 2 "First_Digit_Incorrect" "Geen brug" "XX-XX" "-" "2" 8 46 12 1 848 "TrialProcStim" 24
"461" 10 20 "right" "female" 2 "Second_Digit_Incorrect" "Geen brug" "XX-X" "-" "{SPACE}" 3 85 2 0 0 "TrialProcStim" 82
"462" 10 20 "right" "female" 2 "Correct" "Geen brug" "XX-X" "-" "0" 2 85 2 1 2498 "TrialProcStim" 83
"463" 10 20 "right" "female" 2 "Correct" "Geen brug" "XXX-XXX" "-" "2" 8 495 244 1 932 "TrialProcStim" 251
"464" 10 20 "right" "female" 2 "Middle_Digit_Incorrect" "Geen brug" "XXX-XXX" "-" "9" 8 888 574 1 1631 "TrialProcStim" 304
"465" 10 20 "right" "female" 2 "Incorrect_Unrelated" "na" "XX*XX" "*" "2" 2 15 31 0 914 "TrialProcStim" 466
"466" 10 20 "right" "female" 2 "Correct" "Geen brug" "XX-XX" "-" "8" 9 79 68 1 2047 "TrialProcStim" 11
"467" 10 20 "right" "female" 2 "Incorrect_Related" "na" "XX*X" "*" "3" 3 10 9 0 633 "TrialProcStim" 80
"468" 10 20 "right" "female" 2 "Correct" "Brug" "XXX-XX" "-" "2" 2 169 85 0 388 "TrialProcStim" 84
"469" 10 20 "right" "female" 2 "First_Digit_Incorrect" "Brug" "XXX-XX" "-" "8" 3 123 66 1 2482 "TrialProcStim" 67
"470" 10 20 "right" "female" 2 "Correct" "na" "XX*XX" "*" "0" 2 11 11 1 1640 "TrialProcStim" 121
"471" 10 20 "right" "female" 2 "First_Digit_Incorrect" "Geen brug" "XX-XX" "-" "9" 8 58 16 0 1819 "TrialProcStim" 32
"472" 10 20 "right" "female" 2 "Second_Digit_Incorrect" "Geen brug" "XX-XX" "-" "8" 3 46 12 0 1099 "TrialProcStim" 36
"473" 10 20 "right" "female" 2 "First_Digit_Incorrect" "Geen brug" "XX-X" "-" "0" 8 85 2 1 1945 "TrialProcStim" 73
"474" 10 20 "right" "female" 2 "Incorrect_Unrelated" "na" "X*XX" "*" "8" 3 5 29 1 1492 "TrialProcStim" 146
"475" 10 20 "right" "female" 2 "Second_Digit_Incorrect" "Brug" "XXX-XX" "-" "8" 3 123 66 1 2335 "TrialProcStim" 53
"476" 10 20 "right" "female" 2 "Correct" "Geen brug" "XXX-XX" "-" "8" 3 279 45 0 2716 "TrialProcStim" 234
"477" 10 20 "right" "female" 2 "First_Digit_Incorrect" "Geen brug" "XX-XX" "-" "9" 3 64 12 1 2638 "TrialProcStim" 42
"478" 10 20 "right" "female" 2 "Correct" "Geen brug" "XXX-XXX" "-" "9" 3 479 105 1 2890 "TrialProcStim" 374
"479" 10 20 "right" "female" 2 "Correct" "Geen brug" "XXX-XXX" "-" "9" 3 677 160 0 784 "TrialProcStim" 517
"480" 10 20 "right" "female" 2 "Correct" "Brug" "XX-XX" "-" "9" 3 91 57 1 2014 "TrialProcStim" 34
"481" 10 20 "right" "female" 2 "Last_Digit_Incorrect" "Geen brug" "XXX-XX" "-" "8" 3 774 53 0 2156 "TrialProcStim" 729
"482" 10 20 "right" "female" 2 "Incorrect_Unrelated" "na" "X*XX" "*" "3" 3 3 46 1 2254 "TrialProcStim" 139
"483" 10 20 "right" "female" 2 "Second_Digit_Incorrect" "Brug" "XX-X" "-" "8" 2 31 9 1 2826 "TrialProcStim" 28
"484" 10 20 "right" "female" 2 "First_Digit_Incorrect" "Brug" "XXX-XX" "-" "{SPACE}" 3 169 85 0 0 "TrialProcStim" 94
"485" 10 20 "right" "female" 2 "Correct" "na" "XX*X" "*" "0" 3 10 9 1 1615 "TrialProcStim" 90
"486" 10 20 "right" "female" 2 "Incorrect_Related" "na" "X*XX" "*" "{SPACE}" 8 6 16 0 0 "TrialProcStim" 102
"487" 10 20 "right" "female" 2 "Correct" "na" "X*XX" "*" "8" 3 7 21 0 1443 "TrialProcStim" 147
"488" 10 20 "right" "female" 2 "Correct" "na" "XX*XX" "*" "9" 3 13 13 0 2105 "TrialProcStim" 169
"489" 10 20 "right" "female" 2 "Last_Digit_Incorrect" "Geen brug" "XXX-XXX" "-" "1" 8 576 225 1 2583 "TrialProcStim" 359
"490" 10 20 "right" "female" 2 "Correct" "Brug" "XX-XX" "-" "1" 8 32 15 0 764 "TrialProcStim" 17
"491" 10 20 "right" "female" 2 "Second_Digit_Incorrect" "Geen brug" "XX-X" "-" "0" 8 38 2 1 2701 "TrialProcStim" 34
"492" 10 20 "right" "female" 2 "Second_Digit_Incorrect" "Brug" "XXX-XX" "-" "0" 8 119 52 1 2659 "TrialProcStim" 63
"493" 10 20 "right" "female" 2 "Correct" "Brug" "XXX-XX" "-" "9" 8 132 55 0 2297 "TrialProcStim" 77
"494" 10 20 "right" "female" 2 "First_Digit_Incorrect" "Brug" "XX-XX" "-" "8" 3 35 17 0 2554 "TrialProcStim" 28
"495" 10 20 "right" "female" 2 "Second_Digit_Incorrect" "Geen brug" "XX-XX" "-" "8" 8 58 16 0 0 "TrialProcStim" 48
"496" 10 20 "right" "female" 2 "First_Digit_Incorrect" "Geen brug" "XX-X" "-" "0" 8 59 1 1 1333 "TrialProcStim" 48
"497" 10 20 "right" "female" 2 "First_Digit_Incorrect" "Geen brug" "XX-X" "-" "9" 8 77 5 0 2366 "TrialProcStim" 62
"498" 10 20 "right" "female" 2 "Middle_Digit_Incorrect" "Geen brug" "XXX-XXX" "-" "8" 8 479 105 1 2857 "TrialProcStim" 384
"499" 10 20 "right" "female" 2 "Incorrect_Related" "na" "X*XX" "*" "2" 8 3 46 1 2013 "TrialProcStim" 141
"500" 10 20 "right" "female" 2 "Incorrect_Unrelated" "na" "XX*XX" "*" "9" 2 14 14 1 625 "TrialProcStim" 195
"501" 10 20 "right" "female" 2 "Correct" "Brug" "XXX-XX" "-" "9" 2 123 66 1 709 "TrialProcStim" 57
"502" 10 20 "right" "female" 2 "First_Digit_Incorrect" "Brug" "XX-XX" "-" "2" 2 91 57 1 474 "TrialProcStim" 24
"503" 10 20 "right" "female" 2 "Correct" "na" "XX*X" "*" "2" 8 15 7 0 665 "TrialProcStim" 105
"504" 10 20 "right" "female" 2 "Second_Digit_Incorrect" "Brug" "XXX-XXX" "-" "2" 9 882 795 1 938 "TrialProcStim" 83
"505" 10 20 "right" "female" 2 "Incorrect_Related" "na" "X*XX" "*" "9" 9 9 24 0 401 "TrialProcStim" 207
"506" 10 20 "right" "female" 2 "Second_Digit_Incorrect" "Brug" "XX-X" "-" "{SPACE}" 9 88 9 0 143 "TrialProcStim" 71
"507" 10 20 "right" "female" 2 "Middle_Digit_Incorrect" "Geen brug" "XXX-XXX" "-" "3" 3 339 111 0 105 "TrialProcStim" 218
"508" 10 20 "right" "female" 2 "Incorrect_Unrelated" "na" "XX*X" "*" "1" 8 10 9 0 1324 "TrialProcStim" 89
"509" 10 20 "right" "female" 2 "First_Digit_Incorrect" "Brug" "XX-XX" "-" "2" 8 46 27 1 264 "TrialProcStim" 29
"510" 10 20 "right" "female" 2 "Correct" "Brug" "XX-X" "-" "8" 8 94 8 1 795 "TrialProcStim" 86
"511" 10 20 "right" "female" 2 "Correct" "na" "X*XX" "*" "8" 9 2 98 0 1780 "TrialProcStim" 196
"512" 10 20 "right" "female" 2 "Correct" "Brug" "XX-X" "-" "8" 3 88 9 0 483 "TrialProcStim" 79
"513" 10 20 "right" "female" 2 "Second_Digit_Incorrect" "Brug" "XX-X" "-" "1" 3 51 9 1 824 "TrialProcStim" 48
"514" 10 20 "right" "female" 2 "Incorrect_Related" "na" "X*XX" "*" "9" 8 5 29 1 904 "TrialProcStim" 150
"515" 10 20 "right" "female" 2 "First_Digit_Incorrect" "Brug" "XX-XX" "-" "3" 9 81 37 0 0 "TrialProcStim" 54
"516" 10 20 "right" "female" 2 "First_Digit_Incorrect" "Geen brug" "XX-XX" "-" "{SPACE}" 3 98 64 0 603 "TrialProcStim" 24
"517" 10 20 "right" "female" 2 "Correct" "Brug" "XX-XX" "-" "8" 3 52 16 1 81 "TrialProcStim" 36
"518" 10 20 "right" "female" 2 "Correct" "Brug" "XXX-XX" "-" "0" 3 172 99 0 185 "TrialProcStim" 73
"519" 10 20 "right" "female" 2 "First_Digit_Incorrect" "Brug" "XX-X" "-" "8" 0 42 5 1 1342 "TrialProcStim" 27
"520" 10 20 "right" "female" 2 "Correct" "Brug" "XX-XX" "-" "8" 0 81 37 1 808 "TrialProcStim" 44
"521" 10 20 "right" "female" 2 "Second_Digit_Incorrect" "Brug" "XXX-XX" "-" "9" 2 105 22 0 2063 "TrialProcStim" 87
"522" 10 20 "right" "female" 2 "Correct" "Brug" "XXX-XXX" "-" "9" 2 788 699 1 426 "TrialProcStim" 89
"523" 10 20 "right" "female" 2 "Second_Digit_Incorrect" "Brug" "XXX-XXX" "-" "2" 2 452 369 1 365 "TrialProcStim" 87
"524" 10 20 "right" "female" 2 "Correct" "Geen brug" "XXX-XX" "-" "{SPACE}" 9 663 22 0 0 "TrialProcStim" 641
"525" 10 20 "right" "female" 2 "Incorrect_Related" "na" "X*XX" "*" "9" 8 2 98 0 1768 "TrialProcStim" 198
"526" 10 20 "right" "female" 2 "First_Digit_Incorrect" "Brug" "XXX-XXX" "-" "{SPACE}" 0 788 699 0 0 "TrialProcStim" 79
"527" 10 20 "right" "female" 2 "Incorrect_Unrelated" "na" "X*XX" "*" "2" 9 4 56 1 136 "TrialProcStim" 223
"528" 10 20 "right" "female" 2 "Incorrect_Unrelated" "na" "X*XX" "*" "8" 8 2 98 1 436 "TrialProcStim" 197
"529" 10 20 "right" "female" 2 "Correct" "Geen brug" "XXX-XXX" "-" "8" 3 888 574 1 437 "TrialProcStim" 314
"530" 10 20 "right" "female" 2 "Correct" "na" "X*XX" "*" "8" 3 5 29 0 1425 "TrialProcStim" 145
"531" 10 20 "right" "female" 2 "Correct" "Geen brug" "XXX-XX" "-" "8" 3 398 66 0 514 "TrialProcStim" 332
"532" 10 20 "right" "female" 2 "Last_Digit_Incorrect" "Geen brug" "XXX-XXX" "-" "8" 8 989 577 1 1647 "TrialProcStim" 418
"533" 10 20 "right" "female" 2 "Incorrect_Unrelated" "na" "XX*X" "*" "8" 8 87 2 1 516 "TrialProcStim" 175
"534" 10 20 "right" "female" 2 "Correct" "Geen brug" "XX-X" "-" "8" 8 67 3 0 570 "TrialProcStim" 64
"535" 10 20 "right" "female" 2 "Second_Digit_Incorrect" "Brug" "XXX-XXX" "-" "0" 9 254 188 0 60 "TrialProcStim" 64
"536" 10 20 "right" "female" 2 "Correct" "na" "XX*XX" "*" "1" 9 25 18 1 432 "TrialProcStim" 450
"537" 10 20 "right" "female" 2 "Correct" "Brug" "XXX-XXX" "-" "8" 3 882 795 1 1804 "TrialProcStim" 87
"538" 10 20 "right" "female" 2 "Correct" "Brug" "XX-X" "-" "8" 8 71 9 0 316 "TrialProcStim" 62
"539" 10 20 "right" "female" 2 "Second_Digit_Incorrect" "Brug" "XX-XX" "-" "8" 2 81 37 1 568 "TrialProcStim" 46
"540" 10 20 "right" "female" 2 "Incorrect_Unrelated" "na" "XX*X" "*" "3" 0 16 4 0 719 "TrialProcStim" 65
"541" 10 20 "right" "female" 2 "Correct" "Geen brug" "XXX-XX" "-" "8" 2 963 52 0 232 "TrialProcStim" 911
"542" 10 20 "right" "female" 2 "Middle_Digit_Incorrect" "Geen brug" "XXX-XXX" "-" "0" 3 784 431 1 1029 "TrialProcStim" 343
"543" 10 20 "right" "female" 2 "Last_Digit_Incorrect" "Geen brug" "XXX-XX" "-" "9" 9 963 52 1 742 "TrialProcStim" 919
"544" 10 20 "right" "female" 2 "Incorrect_Related" "na" "XX*X" "*" "2" 2 16 4 1 275 "TrialProcStim" 80
"545" 10 20 "right" "female" 2 "Correct" "Geen brug" "XX-X" "-" "8" 9 45 4 0 543 "TrialProcStim" 41
"546" 10 20 "right" "female" 2 "Correct" "Brug" "XXX-XXX" "-" "9" 2 537 444 1 785 "TrialProcStim" 93
"547" 10 20 "right" "female" 2 "Correct" "na" "XX*X" "*" "3" 2 55 3 0 407 "TrialProcStim" 165
"548" 10 20 "right" "female" 2 "Second_Digit_Incorrect" "Brug" "XX-XX" "-" "2" 9 66 29 0 434 "TrialProcStim" 33
"549" 10 20 "right" "female" 2 "Correct" "Brug" "XX-X" "-" "8" 9 45 9 1 2097 "TrialProcStim" 36
"550" 10 20 "right" "female" 2 "Correct" "Geen brug" "XX-XX" "-" "9" 8 39 18 0 957 "TrialProcStim" 21
"551" 10 20 "right" "female" 2 "Middle_Digit_Incorrect" "Geen brug" "XXX-XX" "-" "9" 8 663 22 0 2350 "TrialProcStim" 631
"552" 10 20 "right" "female" 2 "First_Digit_Incorrect" "Brug" "XXX-XXX" "-" "8" 8 326 253 0 2828 "TrialProcStim" 83
"553" 10 20 "right" "female" 2 "Incorrect_Related" "na" "XX*X" "*" "9" 8 24 5 1 1787 "TrialProcStim" 96
"554" 10 20 "right" "female" 2 "Second_Digit_Incorrect" "Brug" "XXX-XX" "-" "9" 3 169 85 1 1090 "TrialProcStim" 86
"555" 10 20 "right" "female" 2 "Correct" "na" "XX*X" "*" "8" 3 24 5 0 2542 "TrialProcStim" 120
"556" 10 20 "right" "female" 2 "Second_Digit_Incorrect" "Brug" "XX-XX" "-" "9" 8 75 26 1 1315 "TrialProcStim" 41
"557" 10 20 "right" "female" 2 "First_Digit_Incorrect" "Brug" "XXX-XX" "-" "8" 3 105 22 0 983 "TrialProcStim" 93
"558" 10 20 "right" "female" 2 "Last_Digit_Incorrect" "Geen brug" "XXX-XXX" "-" "8" 3 677 160 0 2101 "TrialProcStim" 513
"559" 10 20 "right" "female" 2 "First_Digit_Incorrect" "Brug" "XXX-XX" "-" "8" 3 172 99 0 2636 "TrialProcStim" 83
"560" 10 20 "right" "female" 2 "Last_Digit_Incorrect" "Geen brug" "XXX-XX" "-" "8" 3 398 66 0 2323 "TrialProcStim" 338
"561" 10 20 "right" "female" 2 "Second_Digit_Incorrect" "Brug" "XX-XX" "-" "8" 3 52 16 0 2824 "TrialProcStim" 34
"562" 10 20 "right" "female" 2 "First_Digit_Incorrect" "Brug" "XX-X" "-" "{SPACE}" 3 45 9 0 0 "TrialProcStim" 26
"563" 10 20 "right" "female" 2 "Incorrect_Unrelated" "na" "XX*X" "*" "9" 2 55 3 0 34 "TrialProcStim" 166
"564" 10 20 "right" "female" 2 "First_Digit_Incorrect" "Brug" "XX-XX" "-" "3" 8 32 15 0 234 "TrialProcStim" 27
"565" 10 20 "right" "female" 2 "Incorrect_Related" "na" "XX*X" "*" "3" 2 87 2 0 79 "TrialProcStim" 261
"566" 10 20 "right" "female" 2 "Correct" "Geen brug" "XX-XX" "-" "8" 8 58 16 1 829 "TrialProcStim" 42
"567" 10 20 "right" "female" 2 "Second_Digit_Incorrect" "Geen brug" "XX-XX" "-" "8" 8 98 64 1 38 "TrialProcStim" 36
"568" 10 20 "right" "female" 2 "Middle_Digit_Incorrect" "Geen brug" "XXX-XX" "-" "0" 3 963 52 1 406 "TrialProcStim" 921
"569" 10 20 "right" "female" 2 "First_Digit_Incorrect" "Brug" "XXX-XXX" "-" "8" 8 263 177 1 261 "TrialProcStim" 96
"570" 10 20 "right" "female" 2 "Incorrect_Unrelated" "na" "X*XX" "*" "9" 8 9 24 1 671 "TrialProcStim" 215
"571" 10 20 "right" "female" 2 "Second_Digit_Incorrect" "Brug" "XX-X" "-" "9" 3 71 9 0 1643 "TrialProcStim" 68
"572" 10 20 "right" "female" 2 "Middle_Digit_Incorrect" "Geen brug" "XXX-XXX" "-" "9" 3 576 225 1 2627 "TrialProcStim" 341
"573" 10 20 "right" "female" 2 "Middle_Digit_Incorrect" "Geen brug" "XXX-XXX" "-" "9" 8 989 577 1 1869 "TrialProcStim" 422
"574" 10 20 "right" "female" 2 "Second_Digit_Incorrect" "Geen brug" "XX-XX" "-" "9" 3 72 51 0 1994 "TrialProcStim" 29
"575" 10 20 "right" "female" 2 "Last_Digit_Incorrect" "Geen brug" "XXX-XX" "-" "9" 2 279 45 0 2530 "TrialProcStim" 236
"576" 10 20 "right" "female" 2 "Second_Digit_Incorrect" "Geen brug" "XX-X" "-" "0" 3 59 1 1 2106 "TrialProcStim" 52
"577" 10 20 "right" "female" 2 "Correct" "Geen brug" "XXX-XXX" "-" "2" 2 989 577 0 2563 "TrialProcStim" 412
"578" 10 20 "right" "female" 2 "Incorrect_Related" "na" "XX*XX" "*" "0" 8 25 11 1 2272 "TrialProcStim" 250
"579" 10 20 "right" "female" 2 "Correct" "Geen brug" "XX-X" "-" "0" 8 99 8 0 2052 "TrialProcStim" 91
"580" 10 20 "right" "female" 2 "Incorrect_Unrelated" "na" "XX*XX" "*" "9" 8 12 12 1 2029 "TrialProcStim" 143
"581" 10 20 "right" "female" 2 "Second_Digit_Incorrect" "Brug" "XXX-XX" "-" "9" 3 172 99 1 2915 "TrialProcStim" 77
"582" 10 20 "right" "female" 2 "Correct" "na" "XX*X" "*" "9" 3 61 8 0 2414 "TrialProcStim" 488
"583" 10 20 "right" "female" 2 "Second_Digit_Incorrect" "Geen brug" "XX-XX" "-" "8" 3 82 71 1 141 "TrialProcStim" 19
"584" 10 20 "right" "female" 2 "Second_Digit_Incorrect" "Brug" "XXX-XXX" "-" "2" 3 652 559 0 369 "TrialProcStim" 97
"585" 10 20 "right" "female" 2 "Incorrect_Related" "na" "X*XX" "*" "9" 3 4 56 1 1106 "TrialProcStim" 220
"586" 10 20 "right" "female" 2 "Correct" "Brug" "XXX-XXX" "-" "9" 2 254 188 0 1159 "TrialProcStim" 66
"587" 10 20 "right" "female" 2 "Correct" "na" "X*XX" "*" "8" 8 6 16 0 1264 "TrialProcStim" 96
"588" 10 20 "right" "female" 2 "Second_Digit_Incorrect" "Geen brug" "XX-X" "-" "9" 8 99 8 0 381 "TrialProcStim" 92
"619" 11 22 "right" "female" 1 "Incorrect_Unrelated" "na" "XX*XX" "*" "3" 2 12 12 1 1743 "TrialProcStim" 143
"620" 11 22 "right" "female" 1 "Correct" "Brug" "XXX-XXX" "-" "8" 2 537 444 0 2454 "TrialProcStim" 93
"621" 11 22 "right" "female" 1 "First_Digit_Incorrect" "Geen brug" "XX-XX" "-" "1" 2 72 51 1 1413 "TrialProcStim" 11
"622" 11 22 "right" "female" 1 "Correct" "na" "XX*XX" "*" "2" 2 11 11 1 1661 "TrialProcStim" 121
"623" 11 22 "right" "female" 1 "Incorrect_Unrelated" "na" "XX*XX" "*" "3" 3 25 18 1 1773 "TrialProcStim" 451
"624" 11 22 "right" "female" 1 "Correct" "Geen brug" "XXX-XX" "-" "1" 2 888 62 1 1857 "TrialProcStim" 826
"625" 11 22 "right" "female" 1 "Incorrect_Related" "na" "XX*XX" "*" "3" 2 50 21 1 2683 "TrialProcStim" 1000
"626" 11 22 "right" "female" 1 "Incorrect_Unrelated" "na" "XX*X" "*" "1" 2 16 4 1 2575 "TrialProcStim" 65
"627" 11 22 "right" "female" 1 "Incorrect_Unrelated" "na" "XX*X" "*" "2" 2 24 5 1 1690 "TrialProcStim" 119
"628" 11 22 "right" "female" 1 "Correct" "Geen brug" "XX-XX" "-" "1" 2 79 68 1 2196 "TrialProcStim" 11
"629" 11 22 "right" "female" 1 "Correct" "Brug" "XX-X" "-" "1" 1 71 9 1 2431 "TrialProcStim" 62
"630" 11 22 "right" "female" 1 "First_Digit_Incorrect" "Geen brug" "XX-X" "-" "1" 2 45 4 1 2253 "TrialProcStim" 31
"631" 11 22 "right" "female" 1 "Second_Digit_Incorrect" "Brug" "XXX-XX" "-" "2" 2 132 55 1 2022 "TrialProcStim" 73
"632" 11 22 "right" "female" 1 "Correct" "Brug" "XXX-XXX" "-" "{SPACE}" 2 788 699 0 0 "TrialProcStim" 89
"633" 11 22 "right" "female" 1 "Middle_Digit_Incorrect" "Geen brug" "XXX-XXX" "-" "3" 3 989 577 1 2175 "TrialProcStim" 422
"634" 11 22 "right" "female" 1 "Correct" "Brug" "XXX-XXX" "-" "3" 3 254 188 0 1852 "TrialProcStim" 66
"635" 11 22 "right" "female" 1 "Correct" "Brug" "XX-XX" "-" "3" 3 52 16 1 2849 "TrialProcStim" 36
"636" 11 22 "right" "female" 1 "Correct" "na" "X*XX" "*" "3" 3 2 98 1 2257 "TrialProcStim" 196
"637" 11 22 "right" "female" 1 "First_Digit_Incorrect" "Geen brug" "XX-XX" "-" "2" 3 79 68 0 1931 "TrialProcStim" 21
"638" 11 22 "right" "female" 1 "Incorrect_Related" "na" "X*XX" "*" "3" 3 8 31 1 2910 "TrialProcStim" 240
"639" 11 22 "right" "female" 1 "Correct" "Brug" "XXX-XX" "-" "3" 3 119 52 0 2243 "TrialProcStim" 67
"640" 11 22 "right" "female" 1 "Correct" "na" "X*XX" "*" "3" 3 9 24 1 1809 "TrialProcStim" 216
"641" 11 22 "right" "female" 1 "Second_Digit_Incorrect" "Geen brug" "XX-X" "-" "1" 3 67 3 1 2020 "TrialProcStim" 66
"642" 11 22 "right" "female" 1 "Correct" "na" "X*XX" "*" "3" 3 8 31 1 2195 "TrialProcStim" 248
"643" 11 22 "right" "female" 1 "Last_Digit_Incorrect" "Geen brug" "XXX-XX" "-" "1" 2 888 62 1 2398 "TrialProcStim" 824
"644" 11 22 "right" "female" 1 "Second_Digit_Incorrect" "Brug" "XX-XX" "-" "3" 2 81 37 0 1449 "TrialProcStim" 46
"645" 11 22 "right" "female" 1 "Correct" "na" "X*XX" "*" "3" 3 5 29 1 1994 "TrialProcStim" 145
"646" 11 22 "right" "female" 1 "Incorrect_Related" "na" "X*XX" "*" "2" 3 3 46 1 2532 "TrialProcStim" 141
"647" 11 22 "right" "female" 1 "First_Digit_Incorrect" "Brug" "XXX-XXX" "-" "8" 2 326 253 1 2212 "TrialProcStim" 83
"648" 11 22 "right" "female" 1 "Second_Digit_Incorrect" "Brug" "XXX-XX" "-" "2" 2 105 22 1 2505 "TrialProcStim" 87
"649" 11 22 "right" "female" 1 "First_Digit_Incorrect" "Geen brug" "XX-X" "-" "1" 1 38 2 1 1477 "TrialProcStim" 26
"650" 11 22 "right" "female" 1 "First_Digit_Incorrect" "Geen brug" "XX-XX" "-" "1" 1 46 12 1 1912 "TrialProcStim" 24
"651" 11 22 "right" "female" 1 "Second_Digit_Incorrect" "Geen brug" "XX-X" "-" "0" 1 45 4 0 1411 "TrialProcStim" 42
"652" 11 22 "right" "female" 1 "Correct" "Brug" "XX-XX" "-" "3" 2 81 37 1 1266 "TrialProcStim" 44
"653" 11 22 "right" "female" 1 "Last_Digit_Incorrect" "Geen brug" "XXX-XX" "-" "1" 2 599 63 1 2504 "TrialProcStim" 567
"654" 11 22 "right" "female" 1 "Second_Digit_Incorrect" "Geen brug" "XX-X" "-" "1" 1 58 6 1 1481 "TrialProcStim" 51
"655" 11 22 "right" "female" 1 "Second_Digit_Incorrect" "Brug" "XX-X" "-" "{SPACE}" 1 45 9 0 0 "TrialProcStim" 34
"656" 11 22 "right" "female" 1 "Correct" "Geen brug" "XXX-XX" "-" "2" 2 398 66 1 1580 "TrialProcStim" 332
"657" 11 22 "right" "female" 1 "Incorrect_Related" "na" "XX*XX" "*" "1" 3 25 11 1 2186 "TrialProcStim" 250
"658" 11 22 "right" "female" 1 "Correct" "Brug" "XX-XX" "-" "1" 2 32 15 1 1475 "TrialProcStim" 17
"659" 11 22 "right" "female" 1 "Second_Digit_Incorrect" "Brug" "XXX-XX" "-" "2" 2 148 56 0 1829 "TrialProcStim" 98
"660" 11 22 "right" "female" 1 "Correct" "Geen brug" "XXX-XXX" "-" "8" 1 989 577 1 1829 "TrialProcStim" 412
"661" 11 22 "right" "female" 1 "Second_Digit_Incorrect" "Brug" "XXX-XX" "-" "{SPACE}" 3 119 52 0 0 "TrialProcStim" 63
"662" 11 22 "right" "female" 1 "Correct" "na" "XX*XX" "*" "3" 3 50 21 1 2297 "TrialProcStim" 1050
"663" 11 22 "right" "female" 1 "Incorrect_Unrelated" "na" "XX*XX" "*" "3" 3 50 21 1 1482 "TrialProcStim" 1049
"664" 11 22 "right" "female" 1 "Last_Digit_Incorrect" "Geen brug" "XXX-XXX" "-" "1" 3 479 105 1 2487 "TrialProcStim" 376
"665" 11 22 "right" "female" 1 "Second_Digit_Incorrect" "Geen brug" "XX-XX" "-" "1" 2 98 64 1 2028 "TrialProcStim" 36
"666" 11 22 "right" "female" 1 "First_Digit_Incorrect" "Brug" "XX-XX" "-" "1" 2 32 15 0 1267 "TrialProcStim" 27
"667" 11 22 "right" "female" 1 "First_Digit_Incorrect" "Brug" "XX-XX" "-" "8" 2 81 37 0 1447 "TrialProcStim" 54
"668" 11 22 "right" "female" 1 "Correct" "Brug" "XXX-XX" "-" "3" 3 123 66 1 1686 "TrialProcStim" 57
"669" 11 22 "right" "female" 1 "Second_Digit_Incorrect" "Brug" "XX-X" "-" "1" 2 94 8 1 2070 "TrialProcStim" 84
"670" 11 22 "right" "female" 1 "Middle_Digit_Incorrect" "Geen brug" "XXX-XXX" "-" "3" 2 677 160 0 2365 "TrialProcStim" 527
"671" 11 22 "right" "female" 1 "Correct" "Brug" "XXX-XXX" "-" "8" 3 452 369 0 1909 "TrialProcStim" 83
"672" 11 22 "right" "female" 1 "Incorrect_Unrelated" "na" "X*XX" "*" "3" 2 4 56 0 1619 "TrialProcStim" 223
"673" 11 22 "right" "female" 1 "Middle_Digit_Incorrect" "Geen brug" "XXX-XX" "-" "1" 2 599 63 1 2035 "TrialProcStim" 553
"674" 11 22 "right" "female" 1 "Incorrect_Unrelated" "na" "XX*X" "*" "1" 1 10 9 1 1014 "TrialProcStim" 89
"675" 11 22 "right" "female" 1 "Incorrect_Unrelated" "na" "XX*X" "*" "3" 2 61 8 0 1862 "TrialProcStim" 489
"676" 11 22 "right" "female" 1 "Last_Digit_Incorrect" "Geen brug" "XXX-XXX" "-" "8" 3 888 574 1 2779 "TrialProcStim" 316
"677" 11 22 "right" "female" 1 "Correct" "Brug" "XX-X" "-" "1" 2 42 5 1 1268 "TrialProcStim" 37
"678" 11 22 "right" "female" 1 "Middle_Digit_Incorrect" "Geen brug" "XXX-XX" "-" "3" 2 888 62 0 2379 "TrialProcStim" 836
"679" 11 22 "right" "female" 1 "Correct" "Brug" "XXX-XXX" "-" "8" 9 882 795 0 2766 "TrialProcStim" 87
"680" 11 22 "right" "female" 1 "First_Digit_Incorrect" "Brug" "XXX-XX" "-" "3" 9 123 66 0 2693 "TrialProcStim" 67
"681" 11 22 "right" "female" 1 "Correct" "na" "X*XX" "*" "{SPACE}" 3 4 56 0 0 "TrialProcStim" 224
"682" 11 22 "right" "female" 1 "Correct" "Geen brug" "XXX-XXX" "-" "3" 9 784 431 1 2063 "TrialProcStim" 353
"683" 11 22 "right" "female" 1 "Middle_Digit_Incorrect" "Geen brug" "XXX-XXX" "-" "3" 9 888 574 0 2445 "TrialProcStim" 304
"684" 11 22 "right" "female" 1 "Correct" "Brug" "XX-XX" "-" "3" 3 35 17 1 2209 "TrialProcStim" 18
"685" 11 22 "right" "female" 1 "Incorrect_Unrelated" "na" "XX*X" "*" "3" 3 55 3 1 2245 "TrialProcStim" 166
"686" 11 22 "right" "female" 1 "Second_Digit_Incorrect" "Brug" "XXX-XX" "-" "3" 8 169 85 0 2083 "TrialProcStim" 86
"687" 11 22 "right" "female" 1 "Incorrect_Unrelated" "na" "XX*X" "*" "{SPACE}" 8 75 6 0 0 "TrialProcStim" 451
"688" 11 22 "right" "female" 1 "Second_Digit_Incorrect" "Geen brug" "XX-XX" "-" "3" 3 79 68 0 1154 "TrialProcStim" 19
"689" 11 22 "right" "female" 1 "Incorrect_Unrelated" "na" "XX*XX" "*" "3" 3 13 13 1 2880 "TrialProcStim" 168
"690" 11 22 "right" "female" 1 "First_Digit_Incorrect" "Geen brug" "XX-XX" "-" "1" 2 58 16 1 1913 "TrialProcStim" 32
"691" 11 22 "right" "female" 1 "Last_Digit_Incorrect" "Geen brug" "XXX-XXX" "-" "3" 2 784 431 0 1713 "TrialProcStim" 357
"692" 11 22 "right" "female" 1 "Last_Digit_Incorrect" "Geen brug" "XXX-XX" "-" "1" 2 663 22 1 2817 "TrialProcStim" 649
"693" 11 22 "right" "female" 1 "Correct" "Brug" "XXX-XXX" "-" "3" 2 263 177 0 2552 "TrialProcStim" 86
"694" 11 22 "right" "female" 1 "First_Digit_Incorrect" "Brug" "XX-X" "-" "1" 1 88 9 1 1057 "TrialProcStim" 69
"695" 11 22 "right" "female" 1 "Last_Digit_Incorrect" "Geen brug" "XXX-XX" "-" "1" 2 774 53 1 1612 "TrialProcStim" 729
"696" 11 22 "right" "female" 1 "First_Digit_Incorrect" "Brug" "XXX-XX" "-" "1" 2 132 55 1 1344 "TrialProcStim" 87
"697" 11 22 "right" "female" 1 "First_Digit_Incorrect" "Brug" "XX-X" "-" "1" 1 94 8 1 1639 "TrialProcStim" 76
"698" 11 22 "right" "female" 1 "Correct" "Geen brug" "XXX-XXX" "-" "2" 2 495 244 1 2383 "TrialProcStim" 251
"699" 11 22 "right" "female" 1 "First_Digit_Incorrect" "Brug" "XX-X" "-" "1" 2 45 9 1 1432 "TrialProcStim" 26
"700" 11 22 "right" "female" 1 "Correct" "Geen brug" "XXX-XXX" "-" "3" 2 479 105 1 1758 "TrialProcStim" 374
"701" 11 22 "right" "female" 1 "First_Digit_Incorrect" "Brug" "XXX-XX" "-" "2" 2 172 99 0 2320 "TrialProcStim" 83
"702" 11 22 "right" "female" 1 "Second_Digit_Incorrect" "Brug" "XXX-XXX" "-" "3" 3 788 699 0 1858 "TrialProcStim" 81
"703" 11 22 "right" "female" 1 "Correct" "Geen brug" "XXX-XX" "-" "1" 2 465 22 1 1724 "TrialProcStim" 443
"704" 11 22 "right" "female" 1 "Second_Digit_Incorrect" "Brug" "XXX-XX" "-" "1" 3 123 66 1 1691 "TrialProcStim" 53
"705" 11 22 "right" "female" 1 "Correct" "na" "XX*XX" "*" "8" 3 15 31 0 2181 "TrialProcStim" 465
"706" 11 22 "right" "female" 1 "Correct" "Geen brug" "XXX-XX" "-" "1" 2 663 22 1 1493 "TrialProcStim" 641
"707" 11 22 "right" "female" 1 "Correct" "Geen brug" "XX-X" "-" "1" 1 85 2 1 1284 "TrialProcStim" 83
"708" 11 22 "right" "female" 1 "Correct" "na" "XX*XX" "*" "2" 3 14 14 1 2062 "TrialProcStim" 196
"709" 11 22 "right" "female" 1 "Second_Digit_Incorrect" "Geen brug" "XX-X" "-" "1" 1 59 1 1 930 "TrialProcStim" 52
"710" 11 22 "right" "female" 1 "Correct" "Brug" "XX-XX" "-" "8" 2 91 57 0 1903 "TrialProcStim" 34
"711" 11 22 "right" "female" 1 "Second_Digit_Incorrect" "Brug" "XX-XX" "-" "8" 3 91 57 0 2185 "TrialProcStim" 36
"712" 11 22 "right" "female" 1 "First_Digit_Incorrect" "Geen brug" "XX-X" "-" "1" 1 58 6 1 1007 "TrialProcStim" 42
"713" 11 22 "right" "female" 1 "First_Digit_Incorrect" "Brug" "XX-X" "-" "1" 1 42 5 1 1025 "TrialProcStim" 27
"714" 11 22 "right" "female" 1 "Incorrect_Unrelated" "na" "XX*XX" "*" "2" 2 11 11 0 1063 "TrialProcStim" 122
"715" 11 22 "right" "female" 1 "Incorrect_Related" "na" "X*XX" "*" "1" 2 7 21 1 1313 "TrialProcStim" 140
"716" 11 22 "right" "female" 1 "Second_Digit_Incorrect" "Geen brug" "XX-XX" "-" "1" 2 82 71 1 1064 "TrialProcStim" 19
"717" 11 22 "right" "female" 1 "First_Digit_Incorrect" "Brug" "XX-XX" "-" "{SPACE}" 2 91 57 0 0 "TrialProcStim" 24
"718" 11 22 "right" "female" 1 "Second_Digit_Incorrect" "Brug" "XX-XX" "-" "1" 2 32 15 1 817 "TrialProcStim" 13
"719" 11 22 "right" "female" 1 "First_Digit_Incorrect" "Brug" "XX-XX" "-" "0" 2 35 17 0 1405 "TrialProcStim" 28
"720" 11 22 "right" "female" 1 "Correct" "Geen brug" "XXX-XX" "-" "2" 2 599 63 0 1300 "TrialProcStim" 563
"721" 11 22 "right" "female" 1 "Incorrect_Unrelated" "na" "X*XX" "*" "8" 3 9 24 1 1429 "TrialProcStim" 215
"722" 11 22 "right" "female" 1 "Last_Digit_Incorrect" "Geen brug" "XXX-XX" "-" "1" 2 963 52 1 1098 "TrialProcStim" 919
"723" 11 22 "right" "female" 1 "Correct" "Brug" "XXX-XX" "-" "3" 3 156 63 0 1654 "TrialProcStim" 93
"724" 11 22 "right" "female" 1 "Correct" "Brug" "XX-X" "-" "{SPACE}" 2 45 9 0 0 "TrialProcStim" 36
"725" 11 22 "right" "female" 1 "Correct" "na" "XX*X" "*" "2" 2 16 4 0 1991 "TrialProcStim" 64
"726" 11 22 "right" "female" 1 "Correct" "Geen brug" "XXX-XX" "-" "2" 2 279 45 1 1759 "TrialProcStim" 234
"727" 11 22 "right" "female" 1 "First_Digit_Incorrect" "Geen brug" "XX-XX" "-" "2" 2 98 64 0 1594 "TrialProcStim" 24
"728" 11 22 "right" "female" 1 "Middle_Digit_Incorrect" "Geen brug" "XXX-XXX" "-" "3" 3 784 431 0 1755 "TrialProcStim" 343
"729" 11 22 "right" "female" 1 "Incorrect_Related" "na" "XX*X" "*" "2" 2 75 6 1 1812 "TrialProcStim" 525
"730" 11 22 "right" "female" 1 "Second_Digit_Incorrect" "Brug" "XXX-XXX" "-" "8" 3 452 369 1 2163 "TrialProcStim" 87
"731" 11 22 "right" "female" 1 "First_Digit_Incorrect" "Brug" "XXX-XX" "-" "2" 3 169 85 1 1868 "TrialProcStim" 94
"732" 11 22 "right" "female" 1 "Incorrect_Unrelated" "na" "XX*XX" "*" "2" 3 14 14 1 1106 "TrialProcStim" 195
"733" 11 22 "right" "female" 1 "Correct" "Geen brug" "XX-X" "-" "1" 1 99 8 1 1312 "TrialProcStim" 91
"734" 11 22 "right" "female" 1 "Second_Digit_Incorrect" "Brug" "XXX-XXX" "-" "3" 3 254 188 1 2165 "TrialProcStim" 64
"735" 11 22 "right" "female" 1 "Correct" "na" "X*XX" "*" "1" 3 7 21 1 1178 "TrialProcStim" 147
"736" 11 22 "right" "female" 1 "Correct" "Geen brug" "XXX-XX" "-" "2" 2 963 52 1 2634 "TrialProcStim" 911
"737" 11 22 "right" "female" 1 "Correct" "Geen brug" "XXX-XXX" "-" "3" 2 576 225 1 2020 "TrialProcStim" 351
"738" 11 22 "right" "female" 1 "Incorrect_Unrelated" "na" "X*XX" "*" "1" 2 7 21 1 1107 "TrialProcStim" 146
"739" 11 22 "right" "female" 1 "Last_Digit_Incorrect" "Geen brug" "XXX-XX" "-" "1" 2 465 22 1 2851 "TrialProcStim" 447
"740" 11 22 "right" "female" 1 "First_Digit_Incorrect" "Brug" "XXX-XXX" "-" "3" 2 537 444 0 2387 "TrialProcStim" 83
"741" 11 22 "right" "female" 1 "First_Digit_Incorrect" "Brug" "XXX-XX" "-" "1" 2 105 22 1 1759 "TrialProcStim" 93
"742" 11 22 "right" "female" 1 "Correct" "Brug" "XX-XX" "-" "2" 2 75 26 1 1336 "TrialProcStim" 49
"743" 11 22 "right" "female" 1 "Last_Digit_Incorrect" "Geen brug" "XXX-XXX" "-" "1" 2 339 111 1 1778 "TrialProcStim" 222
"744" 11 22 "right" "female" 1 "Last_Digit_Incorrect" "Geen brug" "XXX-XXX" "-" "1" 2 576 225 1 2528 "TrialProcStim" 359
"745" 11 22 "right" "female" 1 "Correct" "Brug" "XXX-XX" "-" "1" 2 169 85 1 1657 "TrialProcStim" 84
"746" 11 22 "right" "female" 1 "Correct" "Geen brug" "XXX-XXX" "-" "1" 2 339 111 1 2059 "TrialProcStim" 228
"747" 11 22 "right" "female" 1 "Second_Digit_Incorrect" "Brug" "XX-X" "-" "1" 2 31 9 1 1363 "TrialProcStim" 28
"748" 11 22 "right" "female" 1 "First_Digit_Incorrect" "Brug" "XX-XX" "-" "0" 2 46 27 0 1935 "TrialProcStim" 29
"749" 11 22 "right" "female" 1 "Correct" "Geen brug" "XX-X" "-" "1" 1 58 6 1 1227 "TrialProcStim" 52
"750" 11 22 "right" "female" 1 "First_Digit_Incorrect" "Geen brug" "XX-X" "-" "1" 1 85 2 1 868 "TrialProcStim" 73
"751" 11 22 "right" "female" 1 "First_Digit_Incorrect" "Geen brug" "XX-X" "-" "0" 1 59 1 0 1095 "TrialProcStim" 48
"752" 11 22 "right" "female" 1 "Incorrect_Related" "na" "XX*X" "*" "1" 2 16 4 1 1327 "TrialProcStim" 80
"753" 11 22 "right" "female" 1 "Incorrect_Unrelated" "na" "X*XX" "*" "1" 2 2 98 1 1478 "TrialProcStim" 197
"754" 11 22 "right" "female" 1 "Incorrect_Unrelated" "na" "X*XX" "*" "1" 2 8 31 1 736 "TrialProcStim" 247
"755" 11 22 "right" "female" 1 "Correct" "Brug" "XX-X" "-" "1" 2 88 9 1 1073 "TrialProcStim" 79
"756" 11 22 "right" "female" 1 "Correct" "Brug" "XXX-XXX" "-" "8" 2 652 559 0 1812 "TrialProcStim" 93
"757" 11 22 "right" "female" 1 "Correct" "Geen brug" "XX-XX" "-" "1" 1 64 12 1 1927 "TrialProcStim" 52
"758" 11 22 "right" "female" 1 "Correct" "Geen brug" "XX-XX" "-" "2" 2 98 64 1 2230 "TrialProcStim" 34
"759" 11 22 "right" "female" 1 "First_Digit_Incorrect" "Geen brug" "XX-XX" "-" "1" 1 64 12 1 1427 "TrialProcStim" 42
"760" 11 22 "right" "female" 1 "Correct" "Geen brug" "XXX-XXX" "-" "3" 2 888 574 1 1877 "TrialProcStim" 314
"761" 11 22 "right" "female" 1 "Second_Digit_Incorrect" "Geen brug" "XX-XX" "-" "1" 2 72 51 1 1024 "TrialProcStim" 29
"762" 11 22 "right" "female" 1 "Second_Digit_Incorrect" "Geen brug" "XX-X" "-" "1" 1 77 5 1 882 "TrialProcStim" 71
"763" 11 22 "right" "female" 1 "Incorrect_Unrelated" "na" "X*XX" "*" "1" 2 5 29 1 843 "TrialProcStim" 146
"764" 11 22 "right" "female" 1 "Last_Digit_Incorrect" "Geen brug" "XXX-XXX" "-" "1" 2 677 160 1 884 "TrialProcStim" 513
"765" 11 22 "right" "female" 1 "Second_Digit_Incorrect" "Brug" "XX-X" "-" "1" 2 71 9 1 952 "TrialProcStim" 68
"766" 11 22 "right" "female" 1 "Incorrect_Unrelated" "na" "XX*XX" "*" "1" 2 25 11 1 1124 "TrialProcStim" 274
"767" 11 22 "right" "female" 1 "Second_Digit_Incorrect" "Brug" "XX-X" "-" "1" 2 66 7 1 1058 "TrialProcStim" 51
"768" 11 22 "right" "female" 1 "Correct" "Brug" "XXX-XX" "-" "1" 2 105 22 1 1575 "TrialProcStim" 83
"769" 11 22 "right" "female" 1 "Correct" "na" "XX*X" "*" "3" 2 61 8 1 2702 "TrialProcStim" 488
"770" 11 22 "right" "female" 1 "Second_Digit_Incorrect" "Brug" "XXX-XXX" "-" "1" 2 652 559 1 961 "TrialProcStim" 97
"771" 11 22 "right" "female" 1 "Second_Digit_Incorrect" "Brug" "XXX-XX" "-" "1" 2 172 99 1 1310 "TrialProcStim" 77
"772" 11 22 "right" "female" 1 "Second_Digit_Incorrect" "Brug" "XXX-XXX" "-" "1" 2 326 253 1 1058 "TrialProcStim" 77
"773" 11 22 "right" "female" 1 "Incorrect_Related" "na" "X*XX" "*" "1" 2 6 16 1 1624 "TrialProcStim" 102
"774" 11 22 "right" "female" 1 "Last_Digit_Incorrect" "Geen brug" "XXX-XX" "-" "1" 2 398 66 1 1447 "TrialProcStim" 338
"775" 11 22 "right" "female" 1 "Incorrect_Related" "na" "XX*XX" "*" "1" 2 11 11 1 1022 "TrialProcStim" 132
"776" 11 22 "right" "female" 1 "Correct" "na" "XX*X" "*" "2" 2 24 5 1 2129 "TrialProcStim" 120
"777" 11 22 "right" "female" 1 "Middle_Digit_Incorrect" "Geen brug" "XXX-XXX" "-" "3" 2 479 105 0 1653 "TrialProcStim" 384
"778" 11 22 "right" "female" 1 "First_Digit_Incorrect" "Brug" "XX-X" "-" "0" 2 51 9 0 1574 "TrialProcStim" 32
"779" 11 22 "right" "female" 1 "Second_Digit_Incorrect" "Brug" "XX-X" "-" "1" 2 51 9 1 1454 "TrialProcStim" 48
"780" 11 22 "right" "female" 1 "Second_Digit_Incorrect" "Brug" "XXX-XXX" "-" "1" 2 537 444 1 1142 "TrialProcStim" 97
"781" 11 22 "right" "female" 1 "Incorrect_Related" "na" "XX*X" "*" "1" 2 61 8 1 939 "TrialProcStim" 549
"782" 11 22 "right" "female" 1 "Incorrect_Related" "na" "XX*X" "*" "1" 2 24 5 1 1153 "TrialProcStim" 96
"783" 11 22 "right" "female" 1 "First_Digit_Incorrect" "Geen brug" "XX-XX" "-" "1" 2 82 71 1 1176 "TrialProcStim" 21
"784" 11 22 "right" "female" 1 "First_Digit_Incorrect" "Geen brug" "XX-X" "-" "1" 1 77 5 1 1330 "TrialProcStim" 62
"785" 11 22 "right" "female" 1 "Correct" "Geen brug" "XX-X" "-" "1" 1 59 1 1 1020 "TrialProcStim" 58
"786" 11 22 "right" "female" 1 "Middle_Digit_Incorrect" "Geen brug" "XXX-XXX" "-" "3" 2 576 225 0 1543 "TrialProcStim" 341
"787" 11 22 "right" "female" 1 "Correct" "Geen brug" "XX-X" "-" "1" 1 67 3 1 760 "TrialProcStim" 64
"788" 11 22 "right" "female" 1 "First_Digit_Incorrect" "Brug" "XXX-XX" "-" "3" 2 148 56 0 1506 "TrialProcStim" 82
"789" 11 22 "right" "female" 1 "First_Digit_Incorrect" "Brug" "XX-X" "-" "1" 1 66 7 1 818 "TrialProcStim" 49
"790" 11 22 "right" "female" 1 "First_Digit_Incorrect" "Brug" "XX-XX" "-" "1" 2 75 26 1 2428 "TrialProcStim" 59
"791" 11 22 "right" "female" 1 "Correct" "Brug" "XXX-XX" "-" "3" 2 148 56 1 1563 "TrialProcStim" 92
"792" 11 22 "right" "female" 1 "First_Digit_Incorrect" "Geen brug" "XX-X" "-" "1" 1 67 3 1 668 "TrialProcStim" 54
"793" 11 22 "right" "female" 1 "Incorrect_Related" "na" "XX*X" "*" "1" 1 10 9 1 899 "TrialProcStim" 80
"794" 11 22 "right" "female" 1 "Correct" "na" "XX*X" "*" "3" 2 75 6 1 2210 "TrialProcStim" 450
"795" 11 22 "right" "female" 1 "Correct" "na" "XX*XX" "*" "3" 3 13 13 1 1810 "TrialProcStim" 169
"796" 11 22 "right" "female" 1 "Incorrect_Related" "na" "X*XX" "*" "2" 2 9 24 1 2273 "TrialProcStim" 207
"797" 11 22 "right" "female" 1 "Correct" "Geen brug" "XXX-XX" "-" "1" 2 774 53 1 1944 "TrialProcStim" 721
"798" 11 22 "right" "female" 1 "Second_Digit_Incorrect" "Geen brug" "XX-XX" "-" "1" 2 58 16 1 1721 "TrialProcStim" 48
"799" 11 22 "right" "female" 1 "Second_Digit_Incorrect" "Geen brug" "XX-X" "-" "1" 1 38 2 1 1390 "TrialProcStim" 34
"800" 11 22 "right" "female" 1 "Middle_Digit_Incorrect" "Geen brug" "XXX-XX" "-" "1" 2 663 22 1 1803 "TrialProcStim" 631
"801" 11 22 "right" "female" 1 "Second_Digit_Incorrect" "Brug" "XXX-XXX" "-" "1" 2 263 177 1 1253 "TrialProcStim" 84
"802" 11 22 "right" "female" 1 "Incorrect_Unrelated" "na" "X*XX" "*" "1" 2 6 16 1 1119 "TrialProcStim" 97
"803" 11 22 "right" "female" 1 "Second_Digit_Incorrect" "Brug" "XXX-XX" "-" "1" 2 156 63 1 2092 "TrialProcStim" 97
"804" 11 22 "right" "female" 1 "Incorrect_Related" "na" "XX*XX" "*" "1" 2 25 18 1 1538 "TrialProcStim" 475
"805" 11 22 "right" "female" 1 "Incorrect_Related" "na" "XX*X" "*" "1" 2 55 3 1 1502 "TrialProcStim" 220
"806" 11 22 "right" "female" 1 "Middle_Digit_Incorrect" "Geen brug" "XXX-XX" "-" "3" 2 774 53 0 1554 "TrialProcStim" 711
"807" 11 22 "right" "female" 1 "Incorrect_Related" "na" "X*XX" "*" "2" 2 5 29 1 1346 "TrialProcStim" 150
"808" 11 22 "right" "female" 1 "Incorrect_Related" "na" "XX*XX" "*" "2" 2 14 14 1 1855 "TrialProcStim" 182
"809" 11 22 "right" "female" 1 "First_Digit_Incorrect" "Brug" "XXX-XX" "-" "3" 2 156 63 0 2236 "TrialProcStim" 83
"810" 11 22 "right" "female" 1 "Correct" "Brug" "XX-X" "-" "1" 1 66 7 1 1261 "TrialProcStim" 59
"811" 11 22 "right" "female" 1 "First_Digit_Incorrect" "Geen brug" "XX-X" "-" "1" 1 99 8 1 846 "TrialProcStim" 81
"812" 11 22 "right" "female" 1 "Correct" "Brug" "XXX-XXX" "-" "3" 2 326 253 1 2035 "TrialProcStim" 73
"813" 11 22 "right" "female" 1 "First_Digit_Incorrect" "Brug" "XXX-XXX" "-" "3" 2 652 559 0 1794 "TrialProcStim" 83
"814" 11 22 "right" "female" 1 "Second_Digit_Incorrect" "Geen brug" "XX-XX" "-" "2" 1 39 18 1 1082 "TrialProcStim" 29
"815" 11 22 "right" "female" 1 "Second_Digit_Incorrect" "Brug" "XX-XX" "-" "2" 2 52 16 0 2195 "TrialProcStim" 34
"816" 11 22 "right" "female" 1 "Second_Digit_Incorrect" "Geen brug" "XX-X" "-" "1" 1 85 2 1 1007 "TrialProcStim" 82
"817" 11 22 "right" "female" 1 "Middle_Digit_Incorrect" "Geen brug" "XXX-XXX" "-" "2" 2 339 111 0 1591 "TrialProcStim" 218
"818" 11 22 "right" "female" 1 "Correct" "Geen brug" "XX-XX" "-" "2" 2 39 18 1 1785 "TrialProcStim" 21
"819" 11 22 "right" "female" 1 "Middle_Digit_Incorrect" "Geen brug" "XXX-XX" "-" "1" 2 465 22 1 1326 "TrialProcStim" 453
"820" 11 22 "right" "female" 1 "Last_Digit_Incorrect" "Geen brug" "XXX-XXX" "-" "1" 2 989 577 1 831 "TrialProcStim" 418
"821" 11 22 "right" "female" 1 "Second_Digit_Incorrect" "Geen brug" "XX-X" "-" "1" 1 99 8 1 801 "TrialProcStim" 92
"822" 11 22 "right" "female" 1 "Correct" "Geen brug" "XX-XX" "-" "1" 1 46 12 1 1724 "TrialProcStim" 34
"823" 11 22 "right" "female" 1 "Correct" "Brug" "XXX-XX" "-" "3" 2 132 55 1 1658 "TrialProcStim" 77
"824" 11 22 "right" "female" 1 "Second_Digit_Incorrect" "Brug" "XX-XX" "-" "3" 2 66 29 0 1885 "TrialProcStim" 33
"825" 11 22 "right" "female" 1 "Correct" "Brug" "XX-X" "-" "1" 1 94 8 1 1311 "TrialProcStim" 86
"826" 11 22 "right" "female" 1 "Second_Digit_Incorrect" "Brug" "XX-XX" "-" "1" 2 75 26 1 1760 "TrialProcStim" 41
"827" 11 22 "right" "female" 1 "Correct" "na" "XX*XX" "*" "2" 2 12 12 1 1057 "TrialProcStim" 144
"828" 11 22 "right" "female" 1 "Second_Digit_Incorrect" "Brug" "XX-XX" "-" "1" 2 46 27 1 861 "TrialProcStim" 11
"829" 11 22 "right" "female" 1 "Second_Digit_Incorrect" "Brug" "XX-X" "-" "1" 2 42 5 1 883 "TrialProcStim" 33
"830" 11 22 "right" "female" 1 "Incorrect_Related" "na" "XX*X" "*" "1" 2 15 7 1 1161 "TrialProcStim" 90
"831" 11 22 "right" "female" 1 "Incorrect_Unrelated" "na" "XX*X" "*" "1" 2 87 2 1 1275 "TrialProcStim" 175
"832" 11 22 "right" "female" 1 "Correct" "na" "XX*X" "*" "8" 2 15 7 0 2247 "TrialProcStim" 105
"833" 11 22 "right" "female" 1 "Correct" "na" "X*XX" "*" "1" 2 6 16 1 1416 "TrialProcStim" 96
"834" 11 22 "right" "female" 1 "First_Digit_Incorrect" "Brug" "XX-XX" "-" "3" 2 66 29 0 2150 "TrialProcStim" 27
"835" 11 22 "right" "female" 1 "Correct" "na" "XX*XX" "*" "3" 2 25 18 1 2100 "TrialProcStim" 450
"836" 11 22 "right" "female" 1 "First_Digit_Incorrect" "Brug" "XXX-XXX" "-" "8" 2 788 699 1 2088 "TrialProcStim" 79
"837" 11 22 "right" "female" 1 "First_Digit_Incorrect" "Brug" "XXX-XX" "-" "8" 2 119 52 0 1247 "TrialProcStim" 77
"838" 11 22 "right" "female" 1 "Correct" "Brug" "XX-XX" "-" "2" 2 46 27 1 1181 "TrialProcStim" 19
"839" 11 22 "right" "female" 1 "Second_Digit_Incorrect" "Brug" "XXX-XXX" "-" "0" 2 882 795 0 2465 "TrialProcStim" 83
"840" 11 22 "right" "female" 1 "Correct" "Geen brug" "XXX-XXX" "-" "2" 2 677 160 1 2190 "TrialProcStim" 517
"841" 11 22 "right" "female" 1 "Correct" "na" "XX*X" "*" "1" 1 10 9 1 988 "TrialProcStim" 90
"842" 11 22 "right" "female" 1 "Correct" "na" "X*XX" "*" "3" 2 3 46 0 2026 "TrialProcStim" 138
"843" 11 22 "right" "female" 1 "First_Digit_Incorrect" "Brug" "XX-X" "-" "1" 2 31 9 1 1423 "TrialProcStim" 12
"844" 11 22 "right" "female" 1 "First_Digit_Incorrect" "Geen brug" "XX-XX" "-" "1" 2 39 18 1 1226 "TrialProcStim" 11
"845" 11 22 "right" "female" 1 "Incorrect_Related" "na" "XX*XX" "*" "1" 2 15 31 1 995 "TrialProcStim" 480
"846" 11 22 "right" "female" 1 "Incorrect_Related" "na" "X*XX" "*" "1" 2 2 98 1 1621 "TrialProcStim" 198
"847" 11 22 "right" "female" 1 "Correct" "Geen brug" "XX-X" "-" "1" 1 38 2 1 933 "TrialProcStim" 36
"848" 11 22 "right" "female" 1 "Incorrect_Related" "na" "X*XX" "*" "1" 2 4 56 1 2000 "TrialProcStim" 220
"849" 11 22 "right" "female" 1 "Second_Digit_Incorrect" "Geen brug" "XX-XX" "-" "1" 2 64 12 1 1934 "TrialProcStim" 58
"850" 11 22 "right" "female" 1 "First_Digit_Incorrect" "Brug" "XXX-XXX" "-" "8" 2 263 177 1 1958 "TrialProcStim" 96
"851" 11 22 "right" "female" 1 "Correct" "na" "XX*X" "*" "2" 2 87 2 1 2612 "TrialProcStim" 174
"852" 11 22 "right" "female" 1 "Incorrect_Related" "na" "XX*X" "*" "1" 2 87 2 1 1663 "TrialProcStim" 261
"853" 11 22 "right" "female" 1 "Incorrect_Unrelated" "na" "XX*X" "*" "1" 2 15 7 1 850 "TrialProcStim" 104
"854" 11 22 "right" "female" 1 "Incorrect_Unrelated" "na" "XX*XX" "*" "1" 2 15 31 1 1761 "TrialProcStim" 466
"855" 11 22 "right" "female" 1 "Correct" "Geen brug" "XX-X" "-" "1" 8 77 5 1 2339 "TrialProcStim" 72
"856" 11 22 "right" "female" 1 "Middle_Digit_Incorrect" "Geen brug" "XXX-XX" "-" "2" 2 279 45 0 1056 "TrialProcStim" 224
"857" 11 22 "right" "female" 1 "Middle_Digit_Incorrect" "Geen brug" "XXX-XX" "-" "8" 2 398 66 0 2253 "TrialProcStim" 322
"858" 11 22 "right" "female" 1 "First_Digit_Incorrect" "Brug" "XXX-XXX" "-" "8" 3 254 188 0 2199 "TrialProcStim" 76
"859" 11 22 "right" "female" 1 "Correct" "Geen brug" "XX-XX" "-" "1" 2 72 51 1 1534 "TrialProcStim" 21
"860" 11 22 "right" "female" 1 "Correct" "na" "XX*XX" "*" "1" 2 25 11 0 2061 "TrialProcStim" 275
"861" 11 22 "right" "female" 1 "Correct" "Brug" "XX-X" "-" "1" 2 31 9 1 2458 "TrialProcStim" 22
"862" 11 22 "right" "female" 1 "Correct" "Geen brug" "XX-XX" "-" "1" 2 58 16 1 1343 "TrialProcStim" 42
"863" 11 22 "right" "female" 1 "First_Digit_Incorrect" "Brug" "XX-XX" "-" "1" 2 52 16 1 847 "TrialProcStim" 26
"864" 11 22 "right" "female" 1 "Last_Digit_Incorrect" "Geen brug" "XXX-XX" "-" "1" 2 279 45 1 2068 "TrialProcStim" 236
"865" 11 22 "right" "female" 1 "Last_Digit_Incorrect" "Geen brug" "XXX-XXX" "-" "1" 2 495 244 1 1026 "TrialProcStim" 259
"866" 11 22 "right" "female" 1 "First_Digit_Incorrect" "Brug" "XXX-XXX" "-" "8" 2 452 369 1 2422 "TrialProcStim" 93
"867" 11 22 "right" "female" 1 "Correct" "Brug" "XX-X" "-" "1" 2 51 9 1 1496 "TrialProcStim" 42
"868" 11 22 "right" "female" 1 "First_Digit_Incorrect" "Brug" "XX-X" "-" "1" 2 71 9 1 899 "TrialProcStim" 52
"869" 11 22 "right" "female" 1 "Correct" "Brug" "XXX-XX" "-" "3" 2 172 99 1 2893 "TrialProcStim" 73
"870" 11 22 "right" "female" 1 "Second_Digit_Incorrect" "Brug" "XX-XX" "-" "1" 2 35 17 1 664 "TrialProcStim" 12
"871" 11 22 "right" "female" 1 "Correct" "Brug" "XX-XX" "-" "3" 2 66 29 1 1575 "TrialProcStim" 37
"872" 11 22 "right" "female" 1 "Incorrect_Related" "na" "XX*XX" "*" "3" 3 13 13 1 2025 "TrialProcStim" 156
"873" 11 22 "right" "female" 1 "Middle_Digit_Incorrect" "Geen brug" "XXX-XX" "-" "1" 2 963 52 1 1950 "TrialProcStim" 921
"874" 11 22 "right" "female" 1 "Incorrect_Related" "na" "XX*XX" "*" "2" 2 12 12 1 1256 "TrialProcStim" 132
"875" 11 22 "right" "female" 1 "First_Digit_Incorrect" "Brug" "XXX-XXX" "-" "8" 3 882 795 1 1343 "TrialProcStim" 77
"876" 11 22 "right" "female" 1 "Correct" "Geen brug" "XX-XX" "-" "1" 2 82 71 1 1185 "TrialProcStim" 11
"877" 11 22 "right" "female" 1 "Second_Digit_Incorrect" "Brug" "XX-X" "-" "1" 1 88 9 1 896 "TrialProcStim" 71
"878" 11 22 "right" "female" 1 "Correct" "na" "XX*X" "*" "{SPACE}" 2 55 3 0 0 "TrialProcStim" 165
"879" 11 22 "right" "female" 1 "Correct" "Geen brug" "XX-X" "-" "1" 1 45 4 1 831 "TrialProcStim" 41
"880" 11 22 "right" "female" 1 "Second_Digit_Incorrect" "Geen brug" "XX-XX" "-" "1" 1 46 12 1 1578 "TrialProcStim" 36
"881" 11 22 "right" "female" 1 "Incorrect_Unrelated" "na" "X*XX" "*" "1" 2 3 46 1 2074 "TrialProcStim" 139
"882" 11 22 "right" "female" 1 "Middle_Digit_Incorrect" "Geen brug" "XXX-XXX" "-" "3" 2 495 244 0 2213 "TrialProcStim" 261
"913" 12 19 "right" "female" 2 "First_Digit_Incorrect" "Brug" "XX-X" "-" "{SPACE}" 8 51 9 0 0 "TrialProcStim" 32
"914" 12 19 "right" "female" 2 "Incorrect_Related" "na" "XX*XX" "*" "9" 8 11 11 0 1048 "TrialProcStim" 132
"915" 12 19 "right" "female" 2 "First_Digit_Incorrect" "Geen brug" "XX-XX" "-" "3" 8 79 68 0 1270 "TrialProcStim" 21
"916" 12 19 "right" "female" 2 "First_Digit_Incorrect" "Geen brug" "XX-X" "-" "9" 8 58 6 0 1504 "TrialProcStim" 42
"917" 12 19 "right" "female" 2 "Correct" "na" "XX*XX" "*" "3" 8 13 13 1 1524 "TrialProcStim" 169
"918" 12 19 "right" "female" 2 "Correct" "Brug" "XXX-XXX" "-" "8" 8 263 177 1 1410 "TrialProcStim" 86
"919" 12 19 "right" "female" 2 "Incorrect_Related" "na" "X*XX" "*" "8" 3 7 21 0 1447 "TrialProcStim" 140
"920" 12 19 "right" "female" 2 "Incorrect_Unrelated" "na" "XX*XX" "*" "9" 8 12 12 0 1313 "TrialProcStim" 143
"921" 12 19 "right" "female" 2 "First_Digit_Incorrect" "Brug" "XXX-XXX" "-" "8" 8 652 559 0 1241 "TrialProcStim" 83
"922" 12 19 "right" "female" 2 "Correct" "Brug" "XXX-XX" "-" "3" 3 132 55 1 1665 "TrialProcStim" 77
"923" 12 19 "right" "female" 2 "Correct" "na" "XX*X" "*" "3" 3 55 3 1 1225 "TrialProcStim" 165
"924" 12 19 "right" "female" 2 "Correct" "na" "XX*X" "*" "0" 8 10 9 0 1294 "TrialProcStim" 90
"925" 12 19 "right" "female" 2 "Second_Digit_Incorrect" "Brug" "XX-XX" "-" "9" 3 32 15 0 2160 "TrialProcStim" 13
"926" 12 19 "right" "female" 2 "Correct" "Geen brug" "XX-XX" "-" "8" 8 58 16 0 1833 "TrialProcStim" 42
"927" 12 19 "right" "female" 2 "First_Digit_Incorrect" "Geen brug" "XX-X" "-" "0" 9 77 5 0 1498 "TrialProcStim" 62
"928" 12 19 "right" "female" 2 "Correct" "Geen brug" "XX-XX" "-" "0" 8 82 71 0 1737 "TrialProcStim" 11
"929" 12 19 "right" "female" 2 "Correct" "Brug" "XX-XX" "-" "3" 3 81 37 1 1872 "TrialProcStim" 44
"930" 12 19 "right" "female" 2 "Second_Digit_Incorrect" "Geen brug" "XX-XX" "-" "1" 8 64 12 1 1949 "TrialProcStim" 58
"931" 12 19 "right" "female" 2 "Last_Digit_Incorrect" "Geen brug" "XXX-XX" "-" "3" 2 963 52 0 1882 "TrialProcStim" 919
"932" 12 19 "right" "female" 2 "Middle_Digit_Incorrect" "Geen brug" "XXX-XX" "-" "3" 3 279 45 0 2239 "TrialProcStim" 224
"933" 12 19 "right" "female" 2 "First_Digit_Incorrect" "Geen brug" "XX-X" "-" "0" 8 99 8 0 1109 "TrialProcStim" 81
"934" 12 19 "right" "female" 2 "Incorrect_Unrelated" "na" "XX*X" "*" "3" 3 75 6 0 1370 "TrialProcStim" 451
"935" 12 19 "right" "female" 2 "First_Digit_Incorrect" "Brug" "XX-X" "-" "0" 8 88 9 0 1714 "TrialProcStim" 69
"936" 12 19 "right" "female" 2 "First_Digit_Incorrect" "Brug" "XXX-XX" "-" "8" 3 148 56 0 1692 "TrialProcStim" 82
"937" 12 19 "right" "female" 2 "Incorrect_Unrelated" "na" "X*XX" "*" "3" 2 3 46 0 2407 "TrialProcStim" 139
"938" 12 19 "right" "female" 2 "First_Digit_Incorrect" "Brug" "XX-X" "-" "0" 8 66 7 0 1304 "TrialProcStim" 49
"939" 12 19 "right" "female" 2 "Correct" "na" "XX*X" "*" "8" 3 16 4 1 1988 "TrialProcStim" 64
"940" 12 19 "right" "female" 2 "Correct" "na" "XX*XX" "*" "1" 1 15 31 1 1407 "TrialProcStim" 465
"941" 12 19 "right" "female" 2 "Correct" "na" "X*XX" "*" "1" 1 9 24 1 709 "TrialProcStim" 216
"942" 12 19 "right" "female" 2 "First_Digit_Incorrect" "Brug" "XXX-XXX" "-" "1" 1 263 177 1 1281 "TrialProcStim" 96
"943" 12 19 "right" "female" 2 "First_Digit_Incorrect" "Brug" "XXX-XX" "-" "1" 1 169 85 0 1908 "TrialProcStim" 94
"944" 12 19 "right" "female" 2 "First_Digit_Incorrect" "Brug" "XX-XX" "-" "8" 3 66 29 1 1887 "TrialProcStim" 27
"945" 12 19 "right" "female" 2 "First_Digit_Incorrect" "Geen brug" "XX-XX" "-" "0" 8 46 12 0 1673 "TrialProcStim" 24
"946" 12 19 "right" "female" 2 "Correct" "Brug" "XX-XX" "-" "1" 3 66 29 1 1976 "TrialProcStim" 37
"947" 12 19 "right" "female" 2 "Second_Digit_Incorrect" "Brug" "XXX-XXX" "-" "3" 2 254 188 0 1987 "TrialProcStim" 64
"948" 12 19 "right" "female" 2 "Second_Digit_Incorrect" "Brug" "XXX-XX" "-" "2" 3 105 22 0 1897 "TrialProcStim" 87
"949" 12 19 "right" "female" 2 "Correct" "Geen brug" "XXX-XXX" "-" "1" 1 495 244 1 1111 "TrialProcStim" 251
"950" 12 19 "right" "female" 2 "Correct" "Brug" "XX-X" "-" "0" 8 94 8 0 2722 "TrialProcStim" 86
"951" 12 19 "right" "female" 2 "Second_Digit_Incorrect" "Brug" "XXX-XXX" "-" "1" 1 452 369 0 1128 "TrialProcStim" 87
"952" 12 19 "right" "female" 2 "First_Digit_Incorrect" "Geen brug" "XX-X" "-" "0" 8 67 3 0 1113 "TrialProcStim" 54
"953" 12 19 "right" "female" 2 "Correct" "Geen brug" "XXX-XX" "-" "1" 8 888 62 1 1930 "TrialProcStim" 826
"954" 12 19 "right" "female" 2 "Second_Digit_Incorrect" "Brug" "XX-XX" "-" "0" 2 66 29 0 2325 "TrialProcStim" 33
"955" 12 19 "right" "female" 2 "First_Digit_Incorrect" "Brug" "XX-X" "-" "0" 8 42 5 0 1841 "TrialProcStim" 27
"956" 12 19 "right" "female" 2 "Second_Digit_Incorrect" "Geen brug" "XX-XX" "-" "0" 8 72 51 0 1409 "TrialProcStim" 29
"957" 12 19 "right" "female" 2 "Second_Digit_Incorrect" "Geen brug" "XX-XX" "-" "0" 8 82 71 0 1352 "TrialProcStim" 19
"958" 12 19 "right" "female" 2 "Second_Digit_Incorrect" "Brug" "XX-X" "-" "0" 8 71 9 0 1757 "TrialProcStim" 68
"959" 12 19 "right" "female" 2 "Middle_Digit_Incorrect" "Geen brug" "XXX-XXX" "-" "8" 3 677 160 0 1842 "TrialProcStim" 527
"960" 12 19 "right" "female" 2 "Incorrect_Related" "na" "X*XX" "*" "8" 8 2 98 0 2466 "TrialProcStim" 198
"961" 12 19 "right" "female" 2 "First_Digit_Incorrect" "Geen brug" "XX-XX" "-" "1" 8 39 18 0 2209 "TrialProcStim" 11
"962" 12 19 "right" "female" 2 "Incorrect_Related" "na" "XX*X" "*" "0" 8 16 4 0 2708 "TrialProcStim" 80
"963" 12 19 "right" "female" 2 "Second_Digit_Incorrect" "Geen brug" "XX-XX" "-" "0" 8 46 12 1 2500 "TrialProcStim" 36
"964" 12 19 "right" "female" 2 "Second_Digit_Incorrect" "Geen brug" "XX-X" "-" "0" 8 45 4 0 2016 "TrialProcStim" 42
"965" 12 19 "right" "female" 2 "Second_Digit_Incorrect" "Brug" "XXX-XXX" "-" "9" 8 652 559 0 2672 "TrialProcStim" 97
"966" 12 19 "right" "female" 2 "Middle_Digit_Incorrect" "Geen brug" "XXX-XX" "-" "0" 8 963 52 0 2989 "TrialProcStim" 921
"967" 12 19 "right" "female" 2 "First_Digit_Incorrect" "Brug" "XX-XX" "-" "0" 8 32 15 0 1615 "TrialProcStim" 27
"968" 12 19 "right" "female" 2 "Correct" "Brug" "XX-X" "-" "0" 8 42 5 0 1263 "TrialProcStim" 37
"969" 12 19 "right" "female" 2 "First_Digit_Incorrect" "Brug" "XXX-XX" "-" "{SPACE}" 8 123 66 0 0 "TrialProcStim" 67
"970" 12 19 "right" "female" 2 "Middle_Digit_Incorrect" "Geen brug" "XXX-XXX" "-" "0" 8 339 111 0 1171 "TrialProcStim" 218
"971" 12 19 "right" "female" 2 "Second_Digit_Incorrect" "Brug" "XXX-XX" "-" "0" 8 172 99 0 1435 "TrialProcStim" 77
"972" 12 19 "right" "female" 2 "First_Digit_Incorrect" "Brug" "XXX-XXX" "-" "3" 8 452 369 0 1424 "TrialProcStim" 93
"973" 12 19 "right" "female" 2 "Incorrect_Related" "na" "X*XX" "*" "1" 3 5 29 1 1371 "TrialProcStim" 150
"974" 12 19 "right" "female" 2 "Second_Digit_Incorrect" "Brug" "XXX-XXX" "-" "9" 8 263 177 0 2250 "TrialProcStim" 84
"975" 12 19 "right" "female" 2 "Correct" "na" "XX*XX" "*" "8" 3 25 11 1 1884 "TrialProcStim" 275
"976" 12 19 "right" "female" 2 "First_Digit_Incorrect" "Brug" "XXX-XXX" "-" "3" 3 537 444 0 1626 "TrialProcStim" 83
"977" 12 19 "right" "female" 2 "First_Digit_Incorrect" "Brug" "XXX-XX" "-" "3" 8 172 99 0 1093 "TrialProcStim" 83
"978" 12 19 "right" "female" 2 "Second_Digit_Incorrect" "Geen brug" "XX-X" "-" "0" 8 77 5 0 1241 "TrialProcStim" 71
"979" 12 19 "right" "female" 2 "Last_Digit_Incorrect" "Geen brug" "XXX-XXX" "-" "1" 8 576 225 0 1642 "TrialProcStim" 359
"980" 12 19 "right" "female" 2 "Correct" "Brug" "XX-X" "-" "0" 8 51 9 0 1458 "TrialProcStim" 42
"981" 12 19 "right" "female" 2 "Incorrect_Related" "na" "XX*XX" "*" "3" 8 13 13 0 1255 "TrialProcStim" 156
"982" 12 19 "right" "female" 2 "Middle_Digit_Incorrect" "Geen brug" "XXX-XX" "-" "0" 8 663 22 0 1681 "TrialProcStim" 631
"983" 12 19 "right" "female" 2 "First_Digit_Incorrect" "Brug" "XX-XX" "-" "1" 8 35 17 0 2850 "TrialProcStim" 28
"984" 12 19 "right" "female" 2 "First_Digit_Incorrect" "Brug" "XXX-XXX" "-" "{SPACE}" 8 788 699 0 0 "TrialProcStim" 79
"985" 12 19 "right" "female" 2 "Second_Digit_Incorrect" "Brug" "XX-XX" "-" "8" 8 46 27 0 2025 "TrialProcStim" 11
"986" 12 19 "right" "female" 2 "Last_Digit_Incorrect" "Geen brug" "XXX-XXX" "-" "8" 8 495 244 1 1660 "TrialProcStim" 259
"987" 12 19 "right" "female" 2 "Correct" "Brug" "XX-X" "-" "0" 8 45 9 0 2262 "TrialProcStim" 36
"988" 12 19 "right" "female" 2 "Correct" "na" "XX*X" "*" "3" 3 15 7 1 2189 "TrialProcStim" 105
"989" 12 19 "right" "female" 2 "Second_Digit_Incorrect" "Brug" "XX-X" "-" "0" 8 66 7 0 1767 "TrialProcStim" 51
"990" 12 19 "right" "female" 2 "Correct" "Geen brug" "XX-XX" "-" "0" 8 39 18 0 1621 "TrialProcStim" 21
"991" 12 19 "right" "female" 2 "Second_Digit_Incorrect" "Brug" "XX-X" "-" "0" 0 88 9 0 1811 "TrialProcStim" 71
"992" 12 19 "right" "female" 2 "Second_Digit_Incorrect" "Brug" "XX-XX" "-" "9" 8 35 17 1 1884 "TrialProcStim" 12
"993" 12 19 "right" "female" 2 "Incorrect_Related" "na" "XX*XX" "*" "0" 8 25 11 0 2152 "TrialProcStim" 250
"994" 12 19 "right" "female" 2 "Incorrect_Related" "na" "XX*XX" "*" "1" 3 25 18 1 960 "TrialProcStim" 475
"995" 12 19 "right" "female" 2 "Correct" "Brug" "XX-XX" "-" "9" 8 75 26 0 1810 "TrialProcStim" 49
"996" 12 19 "right" "female" 2 "Second_Digit_Incorrect" "Geen brug" "XX-XX" "-" "0" 8 79 68 0 1989 "TrialProcStim" 19
"997" 12 19 "right" "female" 2 "Second_Digit_Incorrect" "Brug" "XX-X" "-" "0" 8 51 9 0 1837 "TrialProcStim" 48
"998" 12 19 "right" "female" 2 "Incorrect_Related" "na" "XX*XX" "*" "{SPACE}" 3 50 21 0 0 "TrialProcStim" 1000
"999" 12 19 "right" "female" 2 "Correct" "Geen brug" "XXX-XXX" "-" "{SPACE}" 8 339 111 0 0 "TrialProcStim" 228
"1000" 12 19 "right" "female" 2 "First_Digit_Incorrect" "Brug" "XXX-XXX" "-" "3" 8 254 188 0 1263 "TrialProcStim" 76
"1001" 12 19 "right" "female" 2 "Correct" "Geen brug" "XX-X" "-" "0" 8 45 4 0 1315 "TrialProcStim" 41
"1002" 12 19 "right" "female" 2 "Incorrect_Related" "na" "XX*X" "*" "1" 3 75 6 0 1420 "TrialProcStim" 525
"1003" 12 19 "right" "female" 2 "Correct" "Brug" "XXX-XXX" "-" "3" 3 537 444 1 1889 "TrialProcStim" 93
"1004" 12 19 "right" "female" 2 "Correct" "Geen brug" "XXX-XXX" "-" "0" 8 677 160 0 938 "TrialProcStim" 517
"1005" 12 19 "right" "female" 2 "Second_Digit_Incorrect" "Brug" "XXX-XX" "-" "9" 8 123 66 1 1843 "TrialProcStim" 53
"1006" 12 19 "right" "female" 2 "Incorrect_Unrelated" "na" "XX*X" "*" "0" 8 87 2 0 978 "TrialProcStim" 175
"1007" 12 19 "right" "female" 2 "Second_Digit_Incorrect" "Geen brug" "XX-X" "-" "0" 8 58 6 0 1453 "TrialProcStim" 51
"1008" 12 19 "right" "female" 2 "Incorrect_Unrelated" "na" "XX*XX" "*" "0" 8 50 21 0 1102 "TrialProcStim" 1049
"1009" 12 19 "right" "female" 2 "First_Digit_Incorrect" "Brug" "XX-XX" "-" "0" 8 81 37 1 880 "TrialProcStim" 54
"1010" 12 19 "right" "female" 2 "Correct" "na" "X*XX" "*" "0" 8 3 46 0 577 "TrialProcStim" 138
"1011" 12 19 "right" "female" 2 "Middle_Digit_Incorrect" "Geen brug" "XXX-XX" "-" "1" 8 465 22 1 716 "TrialProcStim" 453
"1012" 12 19 "right" "female" 2 "Last_Digit_Incorrect" "Geen brug" "XXX-XXX" "-" "1" 8 784 431 0 1057 "TrialProcStim" 357
"1013" 12 19 "right" "female" 2 "Incorrect_Unrelated" "na" "X*XX" "*" "0" 8 7 21 0 908 "TrialProcStim" 146
"1014" 12 19 "right" "female" 2 "Second_Digit_Incorrect" "Brug" "XXX-XX" "-" "0" 8 119 52 0 824 "TrialProcStim" 63
"1015" 12 19 "right" "female" 2 "Correct" "na" "XX*X" "*" "0" 8 87 2 0 419 "TrialProcStim" 174
"1016" 12 19 "right" "female" 2 "Correct" "Geen brug" "XX-X" "-" "0" 8 99 8 0 834 "TrialProcStim" 91
"1017" 12 19 "right" "female" 2 "Correct" "Brug" "XXX-XXX" "-" "8" 8 882 795 1 1289 "TrialProcStim" 87
"1018" 12 19 "right" "female" 2 "Correct" "Brug" "XXX-XX" "-" "0" 8 156 63 0 1179 "TrialProcStim" 93
"1019" 12 19 "right" "female" 2 "Middle_Digit_Incorrect" "Geen brug" "XXX-XXX" "-" "8" 8 576 225 0 2035 "TrialProcStim" 341
"1020" 12 19 "right" "female" 2 "Incorrect_Related" "na" "X*XX" "*" "0" 8 3 46 0 868 "TrialProcStim" 141
"1021" 12 19 "right" "female" 2 "Correct" "Geen brug" "XX-XX" "-" "0" 8 64 12 0 797 "TrialProcStim" 52
"1022" 12 19 "right" "female" 2 "First_Digit_Incorrect" "Brug" "XX-XX" "-" "0" 8 52 16 0 760 "TrialProcStim" 26
"1023" 12 19 "right" "female" 2 "Incorrect_Related" "na" "XX*X" "*" "0" 8 24 5 0 1063 "TrialProcStim" 96
"1024" 12 19 "right" "female" 2 "Correct" "na" "X*XX" "*" "0" 8 4 56 0 936 "TrialProcStim" 224
"1025" 12 19 "right" "female" 2 "Incorrect_Unrelated" "na" "XX*X" "*" "0" 0 10 9 0 1016 "TrialProcStim" 89
"1026" 12 19 "right" "female" 2 "Second_Digit_Incorrect" "Brug" "XXX-XXX" "-" "8" 8 537 444 0 1183 "TrialProcStim" 97
"1027" 12 19 "right" "female" 2 "Second_Digit_Incorrect" "Brug" "XX-X" "-" "0" 0 31 9 0 951 "TrialProcStim" 28
"1028" 12 19 "right" "female" 2 "First_Digit_Incorrect" "Geen brug" "XX-X" "-" "0" 0 59 1 0 837 "TrialProcStim" 48
"1029" 12 19 "right" "female" 2 "Second_Digit_Incorrect" "Geen brug" "XX-XX" "-" "0" 0 39 18 0 971 "TrialProcStim" 29
"1030" 12 19 "right" "female" 2 "Incorrect_Unrelated" "na" "XX*XX" "*" "0" 9 25 18 0 1103 "TrialProcStim" 451
"1031" 12 19 "right" "female" 2 "Second_Digit_Incorrect" "Brug" "XX-XX" "-" "0" 9 91 57 0 1074 "TrialProcStim" 36
"1032" 12 19 "right" "female" 2 "Incorrect_Unrelated" "na" "X*XX" "*" "0" 0 5 29 0 904 "TrialProcStim" 146
"1033" 12 19 "right" "female" 2 "Correct" "Geen brug" "XXX-XXX" "-" "8" 8 989 577 1 1743 "TrialProcStim" 412
"1034" 12 19 "right" "female" 2 "Middle_Digit_Incorrect" "Geen brug" "XXX-XX" "-" "0" 8 888 62 0 936 "TrialProcStim" 836
"1035" 12 19 "right" "female" 2 "Correct" "Brug" "XX-XX" "-" "1" 0 35 17 1 1135 "TrialProcStim" 18
"1036" 12 19 "right" "female" 2 "Correct" "Brug" "XX-X" "-" "0" 0 66 7 0 758 "TrialProcStim" 59
"1037" 12 19 "right" "female" 2 "Middle_Digit_Incorrect" "Geen brug" "XXX-XXX" "-" "8" 8 989 577 0 1178 "TrialProcStim" 422
"1038" 12 19 "right" "female" 2 "Correct" "Geen brug" "XX-XX" "-" "0" 0 79 68 0 634 "TrialProcStim" 11
"1039" 12 19 "right" "female" 2 "Second_Digit_Incorrect" "Brug" "XX-XX" "-" "0" 0 52 16 0 765 "TrialProcStim" 34
"1040" 12 19 "right" "female" 2 "Second_Digit_Incorrect" "Geen brug" "XX-X" "-" "0" 0 38 2 0 889 "TrialProcStim" 34
